Event Index,UTC Timestamp,UTC Date,Local Timestamp,Local Timezone,Local Date,Experiment ID,Experiment Version,Tree Node Key,Repeat Key,Schedule ID,Participant Public ID,Participant Private ID,Participant Starting Group,Participant Status,Participant Completion Code,Participant External Session ID,Participant Device Type,Participant Device,Participant OS,Participant Browser,Participant Monitor Size,Participant Viewport Size,Checkpoint,Task Name,Task Version,checkpoint-yiku,checkpoint-gn26,randomiser-2vg5,Reaction Time,Stimulus,Key Press,Test Part,Correct Response,Trial Type,Trial Index,Time Elapsed,Internal Node ID,Correct,match,phase,correct_resp,prop_correct,accuracy_color_trial,minutes
1,1644485949932,10/02/2022 09:39:09,1644485950266,1,10/02/2022 10:39:10,73265,15,task-2gi1,,19331151,BLIND,5735237,Intro Experiment: General explanations,complete,,,computer,Desktop or Laptop,Mac OS 10.11.6,Chrome 97.0.4692.99,1440x900,1440x789,Part 1 completed,Colors_Only_Dutch,6,,Part 1 completed,Accuracy_level_0.55,12022.100000023842,,,,,instructions,0,12034,0.0-0.0,,,,,,,
2,1644485950019,10/02/2022 09:39:10,1644485950376,1,10/02/2022 10:39:10,73265,15,task-2gi1,,19331151,BLIND,5735237,Intro Experiment: General explanations,complete,,,computer,Desktop or Laptop,Mac OS 10.11.6,Chrome 97.0.4692.99,1440x900,1440x789,Part 1 completed,Colors_Only_Dutch,6,,Part 1 completed,Accuracy_level_0.55,,"<div style=""font-size:60px;"">  </div>",,,,html-keyboard-response,1,12145,0.0-1.0-0.0,,,,,,,
3,1644485951488,10/02/2022 09:39:11,1644485951883,1,10/02/2022 10:39:11,73265,15,task-2gi1,,19331151,BLIND,5735237,Intro Experiment: General explanations,complete,,,computer,Desktop or Laptop,Mac OS 10.11.6,Chrome 97.0.4692.99,1440x900,1440x789,Part 1 completed,Colors_Only_Dutch,6,,Part 1 completed,Accuracy_level_0.55,,/task/320040/6/asset/blue.png,,,,image-keyboard-response,2,13651,0.0-1.0-1.0,,1,test, ,0,,0.02695
4,1644485951588,10/02/2022 09:39:11,1644485951987,1,10/02/2022 10:39:11,73265,15,task-2gi1,,19331151,BLIND,5735237,Intro Experiment: General explanations,complete,,,computer,Desktop or Laptop,Mac OS 10.11.6,Chrome 97.0.4692.99,1440x900,1440x789,Part 1 completed,Colors_Only_Dutch,6,,Part 1 completed,Accuracy_level_0.55,,"<div style=""font-size:60px;"">  </div>",,,,html-keyboard-response,3,13756,0.0-1.0-0.1,,,,,,,
5,1644485953105,10/02/2022 09:39:13,1644485953496,1,10/02/2022 10:39:13,73265,15,task-2gi1,,19331151,BLIND,5735237,Intro Experiment: General explanations,complete,,,computer,Desktop or Laptop,Mac OS 10.11.6,Chrome 97.0.4692.99,1440x900,1440x789,Part 1 completed,Colors_Only_Dutch,6,,Part 1 completed,Accuracy_level_0.55,461.2999999523163,/task/320040/6/asset/blue.png,,,,image-keyboard-response,4,15264,0.0-1.0-1.1,,1,test, ,0.43333333333333335,1,0.05383333333333333
6,1644485953198,10/02/2022 09:39:13,1644485953600,1,10/02/2022 10:39:13,73265,15,task-2gi1,,19331151,BLIND,5735237,Intro Experiment: General explanations,complete,,,computer,Desktop or Laptop,Mac OS 10.11.6,Chrome 97.0.4692.99,1440x900,1440x789,Part 1 completed,Colors_Only_Dutch,6,,Part 1 completed,Accuracy_level_0.55,,"<div style=""font-size:60px;"">  </div>",,,,html-keyboard-response,5,15369,0.0-1.0-0.2,,,,,,,
7,1644485954699,10/02/2022 09:39:14,1644485955109,1,10/02/2022 10:39:15,73265,15,task-2gi1,,19331151,BLIND,5735237,Intro Experiment: General explanations,complete,,,computer,Desktop or Laptop,Mac OS 10.11.6,Chrome 97.0.4692.99,1440x900,1440x789,Part 1 completed,Colors_Only_Dutch,6,,Part 1 completed,Accuracy_level_0.55,795.8999999761581,/task/320040/6/asset/blue.png,,,,image-keyboard-response,6,16878,0.0-1.0-1.2,,1,test, ,0.52,1,0.08071666666666667
8,1644485954825,10/02/2022 09:39:14,1644485955212,1,10/02/2022 10:39:15,73265,15,task-2gi1,,19331151,BLIND,5735237,Intro Experiment: General explanations,complete,,,computer,Desktop or Laptop,Mac OS 10.11.6,Chrome 97.0.4692.99,1440x900,1440x789,Part 1 completed,Colors_Only_Dutch,6,,Part 1 completed,Accuracy_level_0.55,,"<div style=""font-size:60px;"">  </div>",,,,html-keyboard-response,7,16981,0.0-1.0-0.3,,,,,,,
9,1644485956358,10/02/2022 09:39:16,1644485956723,1,10/02/2022 10:39:16,73265,15,task-2gi1,,19331151,BLIND,5735237,Intro Experiment: General explanations,complete,,,computer,Desktop or Laptop,Mac OS 10.11.6,Chrome 97.0.4692.99,1440x900,1440x789,Part 1 completed,Colors_Only_Dutch,6,,Part 1 completed,Accuracy_level_0.55,598,/task/320040/6/asset/blue.png,,,,image-keyboard-response,8,18492,0.0-1.0-1.3,,1,test, ,0.5571428571428572,1,0.10761666666666667
10,1644485956483,10/02/2022 09:39:16,1644485956828,1,10/02/2022 10:39:16,73265,15,task-2gi1,,19331151,BLIND,5735237,Intro Experiment: General explanations,complete,,,computer,Desktop or Laptop,Mac OS 10.11.6,Chrome 97.0.4692.99,1440x900,1440x789,Part 1 completed,Colors_Only_Dutch,6,,Part 1 completed,Accuracy_level_0.55,,"<div style=""font-size:60px;"">  </div>",,,,html-keyboard-response,9,18597,0.0-1.0-0.4,,,,,,,
11,1644485957928,10/02/2022 09:39:17,1644485958337,1,10/02/2022 10:39:18,73265,15,task-2gi1,,19331151,BLIND,5735237,Intro Experiment: General explanations,complete,,,computer,Desktop or Laptop,Mac OS 10.11.6,Chrome 97.0.4692.99,1440x900,1440x789,Part 1 completed,Colors_Only_Dutch,6,,Part 1 completed,Accuracy_level_0.55,538.8000000715256,/task/320040/6/asset/blue.png,,,,image-keyboard-response,10,20106,0.0-1.0-1.4,,1,test, ,0.5777777777777778,1,0.13451666666666667
12,1644485958047,10/02/2022 09:39:18,1644485958442,1,10/02/2022 10:39:18,73265,15,task-2gi1,,19331151,BLIND,5735237,Intro Experiment: General explanations,complete,,,computer,Desktop or Laptop,Mac OS 10.11.6,Chrome 97.0.4692.99,1440x900,1440x789,Part 1 completed,Colors_Only_Dutch,6,,Part 1 completed,Accuracy_level_0.55,,"<div style=""font-size:60px;"">  </div>",,,,html-keyboard-response,11,20210,0.0-1.0-0.5,,,,,,,
13,1644485959544,10/02/2022 09:39:19,1644485959946,1,10/02/2022 10:39:19,73265,15,task-2gi1,,19331151,BLIND,5735237,Intro Experiment: General explanations,complete,,,computer,Desktop or Laptop,Mac OS 10.11.6,Chrome 97.0.4692.99,1440x900,1440x789,Part 1 completed,Colors_Only_Dutch,6,,Part 1 completed,Accuracy_level_0.55,,/task/320040/6/asset/black.png,,,,image-keyboard-response,12,21714,0.0-1.0-1.5,,,test,,0.5909090909090909,1,0.16133333333333333
14,1644485959642,10/02/2022 09:39:19,1644485960049,1,10/02/2022 10:39:20,73265,15,task-2gi1,,19331151,BLIND,5735237,Intro Experiment: General explanations,complete,,,computer,Desktop or Laptop,Mac OS 10.11.6,Chrome 97.0.4692.99,1440x900,1440x789,Part 1 completed,Colors_Only_Dutch,6,,Part 1 completed,Accuracy_level_0.55,,"<div style=""font-size:60px;"">  </div>",,,,html-keyboard-response,13,21818,0.0-1.0-0.6,,,,,,,
15,1644485961154,10/02/2022 09:39:21,1644485961559,1,10/02/2022 10:39:21,73265,15,task-2gi1,,19331151,BLIND,5735237,Intro Experiment: General explanations,complete,,,computer,Desktop or Laptop,Mac OS 10.11.6,Chrome 97.0.4692.99,1440x900,1440x789,Part 1 completed,Colors_Only_Dutch,6,,Part 1 completed,Accuracy_level_0.55,936.2000000476837,/task/320040/6/asset/black.png,,,,image-keyboard-response,14,23328,0.0-1.0-1.6,,1,test, ,0.6,1,0.18821666666666667
16,1644485961263,10/02/2022 09:39:21,1644485961663,1,10/02/2022 10:39:21,73265,15,task-2gi1,,19331151,BLIND,5735237,Intro Experiment: General explanations,complete,,,computer,Desktop or Laptop,Mac OS 10.11.6,Chrome 97.0.4692.99,1440x900,1440x789,Part 1 completed,Colors_Only_Dutch,6,,Part 1 completed,Accuracy_level_0.55,,"<div style=""font-size:60px;"">  </div>",,,,html-keyboard-response,15,23432,0.0-1.0-0.7,,,,,,,
17,1644485962773,10/02/2022 09:39:22,1644485963173,1,10/02/2022 10:39:23,73265,15,task-2gi1,,19331151,BLIND,5735237,Intro Experiment: General explanations,complete,,,computer,Desktop or Laptop,Mac OS 10.11.6,Chrome 97.0.4692.99,1440x900,1440x789,Part 1 completed,Colors_Only_Dutch,6,,Part 1 completed,Accuracy_level_0.55,734.3999999761581,/task/320040/6/asset/black.png,,,,image-keyboard-response,16,24942,0.0-1.0-1.7,,1,test, ,0.6066666666666667,1,0.21511666666666668
1,1644854901800,14/02/2022 16:08:21,1644854901572,1,14/02/2022 17:08:21,73265,15,task-2gi1,,19433651,BLIND,5767691,Intro Experiment: General explanations,complete,,,computer,Desktop or Laptop,Mac OS 10.15.7,Chrome 97.0.4692.99,1920x1080,1920x1001,Part 1 completed,Colors_Only_Dutch,6,,Part 1 completed,Accuracy_level_0.55,15021.70000000298,,,,,instructions,0,15029,0.0-0.0,,,,,,,
2,1644854901885,14/02/2022 16:08:21,1644854901696,1,14/02/2022 17:08:21,73265,15,task-2gi1,,19433651,BLIND,5767691,Intro Experiment: General explanations,complete,,,computer,Desktop or Laptop,Mac OS 10.15.7,Chrome 97.0.4692.99,1920x1080,1920x1001,Part 1 completed,Colors_Only_Dutch,6,,Part 1 completed,Accuracy_level_0.55,,"<div style=""font-size:60px;"">  </div>",,,,html-keyboard-response,1,15154,0.0-1.0-0.0,,,,,,,
3,1644854903354,14/02/2022 16:08:23,1644854903205,1,14/02/2022 17:08:23,73265,15,task-2gi1,,19433651,BLIND,5767691,Intro Experiment: General explanations,complete,,,computer,Desktop or Laptop,Mac OS 10.15.7,Chrome 97.0.4692.99,1920x1080,1920x1001,Part 1 completed,Colors_Only_Dutch,6,,Part 1 completed,Accuracy_level_0.55,822.4000000059605,/task/320040/6/asset/pink.png,,,,image-keyboard-response,2,16661,0.0-1.0-1.0,,1,test, ,1.3,1,0.02723333333333333
4,1644854903457,14/02/2022 16:08:23,1644854903310,1,14/02/2022 17:08:23,73265,15,task-2gi1,,19433651,BLIND,5767691,Intro Experiment: General explanations,complete,,,computer,Desktop or Laptop,Mac OS 10.15.7,Chrome 97.0.4692.99,1920x1080,1920x1001,Part 1 completed,Colors_Only_Dutch,6,,Part 1 completed,Accuracy_level_0.55,,"<div style=""font-size:60px;"">  </div>",,,,html-keyboard-response,3,16767,0.0-1.0-0.1,,,,,,,
5,1644854904950,14/02/2022 16:08:24,1644854904816,1,14/02/2022 17:08:24,73265,15,task-2gi1,,19433651,BLIND,5767691,Intro Experiment: General explanations,complete,,,computer,Desktop or Laptop,Mac OS 10.15.7,Chrome 97.0.4692.99,1920x1080,1920x1001,Part 1 completed,Colors_Only_Dutch,6,,Part 1 completed,Accuracy_level_0.55,,/task/320040/6/asset/yellow.png,,,,image-keyboard-response,4,18273,0.0-1.0-1.1,,,test,,0.8666666666666667,1,0.05408333333333333
6,1644854905050,14/02/2022 16:08:25,1644854904921,1,14/02/2022 17:08:24,73265,15,task-2gi1,,19433651,BLIND,5767691,Intro Experiment: General explanations,complete,,,computer,Desktop or Laptop,Mac OS 10.15.7,Chrome 97.0.4692.99,1920x1080,1920x1001,Part 1 completed,Colors_Only_Dutch,6,,Part 1 completed,Accuracy_level_0.55,,"<div style=""font-size:60px;"">  </div>",,,,html-keyboard-response,5,18378,0.0-1.0-0.2,,,,,,,
7,1644854906561,14/02/2022 16:08:26,1644854906426,1,14/02/2022 17:08:26,73265,15,task-2gi1,,19433651,BLIND,5767691,Intro Experiment: General explanations,complete,,,computer,Desktop or Laptop,Mac OS 10.15.7,Chrome 97.0.4692.99,1920x1080,1920x1001,Part 1 completed,Colors_Only_Dutch,6,,Part 1 completed,Accuracy_level_0.55,,/task/320040/6/asset/yellow.png,,,,image-keyboard-response,6,19884,0.0-1.0-1.2,,1,test, ,0.52,,0.08091666666666666
8,1644854906769,14/02/2022 16:08:26,1644854906634,1,14/02/2022 17:08:26,73265,15,task-2gi1,,19433651,BLIND,5767691,Intro Experiment: General explanations,complete,,,computer,Desktop or Laptop,Mac OS 10.15.7,Chrome 97.0.4692.99,1920x1080,1920x1001,Part 1 completed,Colors_Only_Dutch,6,,Part 1 completed,Accuracy_level_0.55,,"<span style=""color:red;font-size:50px;font-weight: bold;"">FOUT!</span>",,,,html-keyboard-response,7,20092,0.0-1.0-2.2-0.2,,,,,,,
9,1644854906879,14/02/2022 16:08:26,1644854906738,1,14/02/2022 17:08:26,73265,15,task-2gi1,,19433651,BLIND,5767691,Intro Experiment: General explanations,complete,,,computer,Desktop or Laptop,Mac OS 10.15.7,Chrome 97.0.4692.99,1920x1080,1920x1001,Part 1 completed,Colors_Only_Dutch,6,,Part 1 completed,Accuracy_level_0.55,,"<div style=""font-size:60px;"">  </div>",,,,html-keyboard-response,8,20196,0.0-1.0-0.3,,,,,,,
10,1644854908382,14/02/2022 16:08:28,1644854908245,1,14/02/2022 17:08:28,73265,15,task-2gi1,,19433651,BLIND,5767691,Intro Experiment: General explanations,complete,,,computer,Desktop or Laptop,Mac OS 10.15.7,Chrome 97.0.4692.99,1920x1080,1920x1001,Part 1 completed,Colors_Only_Dutch,6,,Part 1 completed,Accuracy_level_0.55,,/task/320040/6/asset/yellow.png,,,,image-keyboard-response,9,21702,0.0-1.0-1.3,,1,test, ,0.325,,0.11123333333333334
11,1644854908577,14/02/2022 16:08:28,1644854908449,1,14/02/2022 17:08:28,73265,15,task-2gi1,,19433651,BLIND,5767691,Intro Experiment: General explanations,complete,,,computer,Desktop or Laptop,Mac OS 10.15.7,Chrome 97.0.4692.99,1920x1080,1920x1001,Part 1 completed,Colors_Only_Dutch,6,,Part 1 completed,Accuracy_level_0.55,,"<span style=""color:red;font-size:50px;font-weight: bold;"">FOUT!</span>",,,,html-keyboard-response,10,21907,0.0-1.0-2.3-0.3,,,,,,,
12,1644854908695,14/02/2022 16:08:28,1644854908554,1,14/02/2022 17:08:28,73265,15,task-2gi1,,19433651,BLIND,5767691,Intro Experiment: General explanations,complete,,,computer,Desktop or Laptop,Mac OS 10.15.7,Chrome 97.0.4692.99,1920x1080,1920x1001,Part 1 completed,Colors_Only_Dutch,6,,Part 1 completed,Accuracy_level_0.55,,"<div style=""font-size:60px;"">  </div>",,,,html-keyboard-response,11,22012,0.0-1.0-0.4,,,,,,,
13,1644854910202,14/02/2022 16:08:30,1644854910059,1,14/02/2022 17:08:30,73265,15,task-2gi1,,19433651,BLIND,5767691,Intro Experiment: General explanations,complete,,,computer,Desktop or Laptop,Mac OS 10.15.7,Chrome 97.0.4692.99,1920x1080,1920x1001,Part 1 completed,Colors_Only_Dutch,6,,Part 1 completed,Accuracy_level_0.55,803.1999999880791,/task/320040/6/asset/yellow.png,,,,image-keyboard-response,12,23516,0.0-1.0-1.4,,1,test, ,0.35454545454545455,1,0.14146666666666666
14,1644854910305,14/02/2022 16:08:30,1644854910163,1,14/02/2022 17:08:30,73265,15,task-2gi1,,19433651,BLIND,5767691,Intro Experiment: General explanations,complete,,,computer,Desktop or Laptop,Mac OS 10.15.7,Chrome 97.0.4692.99,1920x1080,1920x1001,Part 1 completed,Colors_Only_Dutch,6,,Part 1 completed,Accuracy_level_0.55,,"<div style=""font-size:60px;"">  </div>",,,,html-keyboard-response,13,23621,0.0-1.0-0.5,,,,,,,
15,1644854911817,14/02/2022 16:08:31,1644854911673,1,14/02/2022 17:08:31,73265,15,task-2gi1,,19433651,BLIND,5767691,Intro Experiment: General explanations,complete,,,computer,Desktop or Laptop,Mac OS 10.15.7,Chrome 97.0.4692.99,1920x1080,1920x1001,Part 1 completed,Colors_Only_Dutch,6,,Part 1 completed,Accuracy_level_0.55,567.0999999940395,/task/320040/6/asset/yellow.png,,,,image-keyboard-response,14,25130,0.0-1.0-1.5,,1,test, ,0.4,1,0.16836666666666666
16,1644854911899,14/02/2022 16:08:31,1644854911777,1,14/02/2022 17:08:31,73265,15,task-2gi1,,19433651,BLIND,5767691,Intro Experiment: General explanations,complete,,,computer,Desktop or Laptop,Mac OS 10.15.7,Chrome 97.0.4692.99,1920x1080,1920x1001,Part 1 completed,Colors_Only_Dutch,6,,Part 1 completed,Accuracy_level_0.55,,"<div style=""font-size:60px;"">  </div>",,,,html-keyboard-response,15,25235,0.0-1.0-0.6,,,,,,,
17,1644854913411,14/02/2022 16:08:33,1644854913284,1,14/02/2022 17:08:33,73265,15,task-2gi1,,19433651,BLIND,5767691,Intro Experiment: General explanations,complete,,,computer,Desktop or Laptop,Mac OS 10.15.7,Chrome 97.0.4692.99,1920x1080,1920x1001,Part 1 completed,Colors_Only_Dutch,6,,Part 1 completed,Accuracy_level_0.55,389.1000000089407,/task/320040/6/asset/yellow.png,,,,image-keyboard-response,16,26742,0.0-1.0-1.6,,1,test, ,0.43333333333333335,1,0.19521666666666668
18,1644854913524,14/02/2022 16:08:33,1644854913388,1,14/02/2022 17:08:33,73265,15,task-2gi1,,19433651,BLIND,5767691,Intro Experiment: General explanations,complete,,,computer,Desktop or Laptop,Mac OS 10.15.7,Chrome 97.0.4692.99,1920x1080,1920x1001,Part 1 completed,Colors_Only_Dutch,6,,Part 1 completed,Accuracy_level_0.55,,"<div style=""font-size:60px;"">  </div>",,,,html-keyboard-response,17,26846,0.0-1.0-0.7,,,,,,,
19,1644854915036,14/02/2022 16:08:35,1644854914895,1,14/02/2022 17:08:34,73265,15,task-2gi1,,19433651,BLIND,5767691,Intro Experiment: General explanations,complete,,,computer,Desktop or Laptop,Mac OS 10.15.7,Chrome 97.0.4692.99,1920x1080,1920x1001,Part 1 completed,Colors_Only_Dutch,6,,Part 1 completed,Accuracy_level_0.55,354,/task/320040/6/asset/yellow.png,,,,image-keyboard-response,18,28353,0.0-1.0-1.7,,1,test, ,0.4588235294117647,1,0.22206666666666666
1,1645000236791,16/02/2022 08:30:36,1645000236334,1,16/02/2022 09:30:36,73265,15,task-2gi1,,19485507,BLIND,5784775,Intro Experiment: General explanations,complete,,,computer,Desktop or Laptop,Windows 10,Chrome 98.0.4758.102,1536x864,1536x754,Part 1 completed,Colors_Only_Dutch,6,,Part 1 completed,Accuracy_level_0.55,26530.20000001788,,,,,instructions,0,26539,0.0-0.0,,,,,,,
2,1645000236880,16/02/2022 08:30:36,1645000236472,1,16/02/2022 09:30:36,73265,15,task-2gi1,,19485507,BLIND,5784775,Intro Experiment: General explanations,complete,,,computer,Desktop or Laptop,Windows 10,Chrome 98.0.4758.102,1536x864,1536x754,Part 1 completed,Colors_Only_Dutch,6,,Part 1 completed,Accuracy_level_0.55,,"<div style=""font-size:60px;"">  </div>",,,,html-keyboard-response,1,26677,0.0-1.0-0.0,,,,,,,
3,1645000238322,16/02/2022 08:30:38,1645000237981,1,16/02/2022 09:30:37,73265,15,task-2gi1,,19485507,BLIND,5784775,Intro Experiment: General explanations,complete,,,computer,Desktop or Laptop,Windows 10,Chrome 98.0.4758.102,1536x864,1536x754,Part 1 completed,Colors_Only_Dutch,6,,Part 1 completed,Accuracy_level_0.55,,/task/320040/6/asset/blue.png,,,,image-keyboard-response,2,28185,0.0-1.0-1.0,,1,test, ,0,,0.027466666666666667
4,1645000238462,16/02/2022 08:30:38,1645000238097,1,16/02/2022 09:30:38,73265,15,task-2gi1,,19485507,BLIND,5784775,Intro Experiment: General explanations,complete,,,computer,Desktop or Laptop,Windows 10,Chrome 98.0.4758.102,1536x864,1536x754,Part 1 completed,Colors_Only_Dutch,6,,Part 1 completed,Accuracy_level_0.55,,"<div style=""font-size:60px;"">  </div>",,,,html-keyboard-response,3,28302,0.0-1.0-0.1,,,,,,,
5,1645000239957,16/02/2022 08:30:39,1645000239613,1,16/02/2022 09:30:39,73265,15,task-2gi1,,19485507,BLIND,5784775,Intro Experiment: General explanations,complete,,,computer,Desktop or Laptop,Windows 10,Chrome 98.0.4758.102,1536x864,1536x754,Part 1 completed,Colors_Only_Dutch,6,,Part 1 completed,Accuracy_level_0.55,491.09999999403954,/task/320040/6/asset/pink.png,,,,image-keyboard-response,4,29819,0.0-1.0-1.1,,,test,,0,,0.05466666666666667
6,1645000240167,16/02/2022 08:30:40,1645000239825,1,16/02/2022 09:30:39,73265,15,task-2gi1,,19485507,BLIND,5784775,Intro Experiment: General explanations,complete,,,computer,Desktop or Laptop,Windows 10,Chrome 98.0.4758.102,1536x864,1536x754,Part 1 completed,Colors_Only_Dutch,6,,Part 1 completed,Accuracy_level_0.55,,"<span style=""color:red;font-size:50px;font-weight: bold;"">FOUT!</span>",,,,html-keyboard-response,5,30031,0.0-1.0-2.1-0.1,,,,,,,
7,1645000240301,16/02/2022 08:30:40,1645000239936,1,16/02/2022 09:30:39,73265,15,task-2gi1,,19485507,BLIND,5784775,Intro Experiment: General explanations,complete,,,computer,Desktop or Laptop,Windows 10,Chrome 98.0.4758.102,1536x864,1536x754,Part 1 completed,Colors_Only_Dutch,6,,Part 1 completed,Accuracy_level_0.55,,"<div style=""font-size:60px;"">  </div>",,,,html-keyboard-response,6,30142,0.0-1.0-0.2,,,,,,,
8,1645000241790,16/02/2022 08:30:41,1645000241449,1,16/02/2022 09:30:41,73265,15,task-2gi1,,19485507,BLIND,5784775,Intro Experiment: General explanations,complete,,,computer,Desktop or Laptop,Windows 10,Chrome 98.0.4758.102,1536x864,1536x754,Part 1 completed,Colors_Only_Dutch,6,,Part 1 completed,Accuracy_level_0.55,,/task/320040/6/asset/pink.png,,,,image-keyboard-response,7,31654,0.0-1.0-1.2,,1,test, ,0,,0.08526666666666667
9,1645000241989,16/02/2022 08:30:41,1645000241656,1,16/02/2022 09:30:41,73265,15,task-2gi1,,19485507,BLIND,5784775,Intro Experiment: General explanations,complete,,,computer,Desktop or Laptop,Windows 10,Chrome 98.0.4758.102,1536x864,1536x754,Part 1 completed,Colors_Only_Dutch,6,,Part 1 completed,Accuracy_level_0.55,,"<span style=""color:red;font-size:50px;font-weight: bold;"">FOUT!</span>",,,,html-keyboard-response,8,31862,0.0-1.0-2.2-0.2,,,,,,,
10,1645000242119,16/02/2022 08:30:42,1645000241773,1,16/02/2022 09:30:41,73265,15,task-2gi1,,19485507,BLIND,5784775,Intro Experiment: General explanations,complete,,,computer,Desktop or Laptop,Windows 10,Chrome 98.0.4758.102,1536x864,1536x754,Part 1 completed,Colors_Only_Dutch,6,,Part 1 completed,Accuracy_level_0.55,,"<div style=""font-size:60px;"">  </div>",,,,html-keyboard-response,9,31979,0.0-1.0-0.3,,,,,,,
11,1645000243630,16/02/2022 08:30:43,1645000243290,1,16/02/2022 09:30:43,73265,15,task-2gi1,,19485507,BLIND,5784775,Intro Experiment: General explanations,complete,,,computer,Desktop or Laptop,Windows 10,Chrome 98.0.4758.102,1536x864,1536x754,Part 1 completed,Colors_Only_Dutch,6,,Part 1 completed,Accuracy_level_0.55,984.5999999940395,/task/320040/6/asset/white.png,,,,image-keyboard-response,10,33495,0.0-1.0-1.3,,,test,,0,,0.11595
12,1645000243847,16/02/2022 08:30:43,1645000243500,1,16/02/2022 09:30:43,73265,15,task-2gi1,,19485507,BLIND,5784775,Intro Experiment: General explanations,complete,,,computer,Desktop or Laptop,Windows 10,Chrome 98.0.4758.102,1536x864,1536x754,Part 1 completed,Colors_Only_Dutch,6,,Part 1 completed,Accuracy_level_0.55,,"<span style=""color:red;font-size:50px;font-weight: bold;"">FOUT!</span>",,,,html-keyboard-response,11,33706,0.0-1.0-2.3-0.3,,,,,,,
13,1645000243942,16/02/2022 08:30:43,1645000243606,1,16/02/2022 09:30:43,73265,15,task-2gi1,,19485507,BLIND,5784775,Intro Experiment: General explanations,complete,,,computer,Desktop or Laptop,Windows 10,Chrome 98.0.4758.102,1536x864,1536x754,Part 1 completed,Colors_Only_Dutch,6,,Part 1 completed,Accuracy_level_0.55,,"<div style=""font-size:60px;"">  </div>",,,,html-keyboard-response,12,33812,0.0-1.0-0.4,,,,,,,
14,1645000245459,16/02/2022 08:30:45,1645000245123,1,16/02/2022 09:30:45,73265,15,task-2gi1,,19485507,BLIND,5784775,Intro Experiment: General explanations,complete,,,computer,Desktop or Laptop,Windows 10,Chrome 98.0.4758.102,1536x864,1536x754,Part 1 completed,Colors_Only_Dutch,6,,Part 1 completed,Accuracy_level_0.55,1298.699999988079,/task/320040/6/asset/blue.png,,,,image-keyboard-response,13,35328,0.0-1.0-1.4,,,test,,0,,0.1465
15,1645000245683,16/02/2022 08:30:45,1645000245341,1,16/02/2022 09:30:45,73265,15,task-2gi1,,19485507,BLIND,5784775,Intro Experiment: General explanations,complete,,,computer,Desktop or Laptop,Windows 10,Chrome 98.0.4758.102,1536x864,1536x754,Part 1 completed,Colors_Only_Dutch,6,,Part 1 completed,Accuracy_level_0.55,,"<span style=""color:red;font-size:50px;font-weight: bold;"">FOUT!</span>",,,,html-keyboard-response,14,35546,0.0-1.0-2.4-0.4,,,,,,,
16,1645000245788,16/02/2022 08:30:45,1645000245455,1,16/02/2022 09:30:45,73265,15,task-2gi1,,19485507,BLIND,5784775,Intro Experiment: General explanations,complete,,,computer,Desktop or Laptop,Windows 10,Chrome 98.0.4758.102,1536x864,1536x754,Part 1 completed,Colors_Only_Dutch,6,,Part 1 completed,Accuracy_level_0.55,,"<div style=""font-size:60px;"">  </div>",,,,html-keyboard-response,15,35661,0.0-1.0-0.5,,,,,,,
17,1645000247316,16/02/2022 08:30:47,1645000246965,1,16/02/2022 09:30:46,73265,15,task-2gi1,,19485507,BLIND,5784775,Intro Experiment: General explanations,complete,,,computer,Desktop or Laptop,Windows 10,Chrome 98.0.4758.102,1536x864,1536x754,Part 1 completed,Colors_Only_Dutch,6,,Part 1 completed,Accuracy_level_0.55,,/task/320040/6/asset/blue.png,,,,image-keyboard-response,16,37171,0.0-1.0-1.5,,1,test, ,0,,0.1772
18,1645000247518,16/02/2022 08:30:47,1645000247174,1,16/02/2022 09:30:47,73265,15,task-2gi1,,19485507,BLIND,5784775,Intro Experiment: General explanations,complete,,,computer,Desktop or Laptop,Windows 10,Chrome 98.0.4758.102,1536x864,1536x754,Part 1 completed,Colors_Only_Dutch,6,,Part 1 completed,Accuracy_level_0.55,,"<span style=""color:red;font-size:50px;font-weight: bold;"">FOUT!</span>",,,,html-keyboard-response,17,37380,0.0-1.0-2.5-0.5,,,,,,,
19,1645000247613,16/02/2022 08:30:47,1645000247281,1,16/02/2022 09:30:47,73265,15,task-2gi1,,19485507,BLIND,5784775,Intro Experiment: General explanations,complete,,,computer,Desktop or Laptop,Windows 10,Chrome 98.0.4758.102,1536x864,1536x754,Part 1 completed,Colors_Only_Dutch,6,,Part 1 completed,Accuracy_level_0.55,,"<div style=""font-size:60px;"">  </div>",,,,html-keyboard-response,18,37486,0.0-1.0-0.6,,,,,,,
20,1645000249141,16/02/2022 08:30:49,1645000248791,1,16/02/2022 09:30:48,73265,15,task-2gi1,,19485507,BLIND,5784775,Intro Experiment: General explanations,complete,,,computer,Desktop or Laptop,Windows 10,Chrome 98.0.4758.102,1536x864,1536x754,Part 1 completed,Colors_Only_Dutch,6,,Part 1 completed,Accuracy_level_0.55,603.3000000119209,/task/320040/6/asset/yellow.png,,,,image-keyboard-response,19,38996,0.0-1.0-1.6,,,test,,0,,0.20763333333333334
21,1645000249332,16/02/2022 08:30:49,1645000248998,1,16/02/2022 09:30:48,73265,15,task-2gi1,,19485507,BLIND,5784775,Intro Experiment: General explanations,complete,,,computer,Desktop or Laptop,Windows 10,Chrome 98.0.4758.102,1536x864,1536x754,Part 1 completed,Colors_Only_Dutch,6,,Part 1 completed,Accuracy_level_0.55,,"<span style=""color:red;font-size:50px;font-weight: bold;"">FOUT!</span>",,,,html-keyboard-response,20,39204,0.0-1.0-2.6-0.6,,,,,,,
22,1645000249453,16/02/2022 08:30:49,1645000249110,1,16/02/2022 09:30:49,73265,15,task-2gi1,,19485507,BLIND,5784775,Intro Experiment: General explanations,complete,,,computer,Desktop or Laptop,Windows 10,Chrome 98.0.4758.102,1536x864,1536x754,Part 1 completed,Colors_Only_Dutch,6,,Part 1 completed,Accuracy_level_0.55,,"<div style=""font-size:60px;"">  </div>",,,,html-keyboard-response,21,39315,0.0-1.0-0.7,,,,,,,
23,1645000250973,16/02/2022 08:30:50,1645000250625,1,16/02/2022 09:30:50,73265,15,task-2gi1,,19485507,BLIND,5784775,Intro Experiment: General explanations,complete,,,computer,Desktop or Laptop,Windows 10,Chrome 98.0.4758.102,1536x864,1536x754,Part 1 completed,Colors_Only_Dutch,6,,Part 1 completed,Accuracy_level_0.55,,/task/320040/6/asset/yellow.png,,,,image-keyboard-response,22,40830,0.0-1.0-1.7,,1,test, ,0,,0.2382
24,1645000251181,16/02/2022 08:30:51,1645000250841,1,16/02/2022 09:30:50,73265,15,task-2gi1,,19485507,BLIND,5784775,Intro Experiment: General explanations,complete,,,computer,Desktop or Laptop,Windows 10,Chrome 98.0.4758.102,1536x864,1536x754,Part 1 completed,Colors_Only_Dutch,6,,Part 1 completed,Accuracy_level_0.55,,"<span style=""color:red;font-size:50px;font-weight: bold;"">FOUT!</span>",,,,html-keyboard-response,23,41047,0.0-1.0-2.7-0.7,,,,,,,
1,1646657652010,07/03/2022 12:54:12,1646657649762,1,07/03/2022 13:54:09,73265,15,task-2gi1,,20141945,BLIND,5972885,Intro Experiment: General explanations,complete,,,computer,Desktop or Laptop,Mac OS 10.15.7,Safari 15.2,1366x768,1366x688,Part 1 completed,Colors_Only_Dutch,6,,Part 1 completed,Accuracy_level_0.55,17603,,,,,instructions,0,17608,0.0-0.0,,,,,,,
2,1646657652126,07/03/2022 12:54:12,1646657649866,1,07/03/2022 13:54:09,73265,15,task-2gi1,,20141945,BLIND,5972885,Intro Experiment: General explanations,complete,,,computer,Desktop or Laptop,Mac OS 10.15.7,Safari 15.2,1366x768,1366x688,Part 1 completed,Colors_Only_Dutch,6,,Part 1 completed,Accuracy_level_0.55,,"<div style=""font-size:60px;"">  </div>",,,,html-keyboard-response,1,17712,0.0-1.0-0.0,,,,,,,
3,1646657653476,07/03/2022 12:54:13,1646657651371,1,07/03/2022 13:54:11,73265,15,task-2gi1,,20141945,BLIND,5972885,Intro Experiment: General explanations,complete,,,computer,Desktop or Laptop,Mac OS 10.15.7,Safari 15.2,1366x768,1366x688,Part 1 completed,Colors_Only_Dutch,6,,Part 1 completed,Accuracy_level_0.55,,/task/320040/6/asset/black.png,,,,image-keyboard-response,2,19216,0.0-1.0-1.0,,1,test, ,0,,0.026816666666666666
4,1646657653586,07/03/2022 12:54:13,1646657651476,1,07/03/2022 13:54:11,73265,15,task-2gi1,,20141945,BLIND,5972885,Intro Experiment: General explanations,complete,,,computer,Desktop or Laptop,Mac OS 10.15.7,Safari 15.2,1366x768,1366x688,Part 1 completed,Colors_Only_Dutch,6,,Part 1 completed,Accuracy_level_0.55,,"<div style=""font-size:60px;"">  </div>",,,,html-keyboard-response,3,19322,0.0-1.0-0.1,,,,,,,
5,1646657655099,07/03/2022 12:54:15,1646657652982,1,07/03/2022 13:54:12,73265,15,task-2gi1,,20141945,BLIND,5972885,Intro Experiment: General explanations,complete,,,computer,Desktop or Laptop,Mac OS 10.15.7,Safari 15.2,1366x768,1366x688,Part 1 completed,Colors_Only_Dutch,6,,Part 1 completed,Accuracy_level_0.55,,/task/320040/6/asset/purple.png,,,,image-keyboard-response,4,20828,0.0-1.0-1.1,,,test,,0.43333333333333335,1,0.05366666666666667
6,1646657655200,07/03/2022 12:54:15,1646657653086,1,07/03/2022 13:54:13,73265,15,task-2gi1,,20141945,BLIND,5972885,Intro Experiment: General explanations,complete,,,computer,Desktop or Laptop,Mac OS 10.15.7,Safari 15.2,1366x768,1366x688,Part 1 completed,Colors_Only_Dutch,6,,Part 1 completed,Accuracy_level_0.55,,"<div style=""font-size:60px;"">  </div>",,,,html-keyboard-response,5,20932,0.0-1.0-0.2,,,,,,,
7,1646657656700,07/03/2022 12:54:16,1646657654591,1,07/03/2022 13:54:14,73265,15,task-2gi1,,20141945,BLIND,5972885,Intro Experiment: General explanations,complete,,,computer,Desktop or Laptop,Mac OS 10.15.7,Safari 15.2,1366x768,1366x688,Part 1 completed,Colors_Only_Dutch,6,,Part 1 completed,Accuracy_level_0.55,,/task/320040/6/asset/blue.png,,,,image-keyboard-response,6,22436,0.0-1.0-1.2,,,test,,0.52,1,0.08048333333333334
8,1646657656802,07/03/2022 12:54:16,1646657654695,1,07/03/2022 13:54:14,73265,15,task-2gi1,,20141945,BLIND,5972885,Intro Experiment: General explanations,complete,,,computer,Desktop or Laptop,Mac OS 10.15.7,Safari 15.2,1366x768,1366x688,Part 1 completed,Colors_Only_Dutch,6,,Part 1 completed,Accuracy_level_0.55,,"<div style=""font-size:60px;"">  </div>",,,,html-keyboard-response,7,22541,0.0-1.0-0.3,,,,,,,
9,1646657658318,07/03/2022 12:54:18,1646657656207,1,07/03/2022 13:54:16,73265,15,task-2gi1,,20141945,BLIND,5972885,Intro Experiment: General explanations,complete,,,computer,Desktop or Laptop,Mac OS 10.15.7,Safari 15.2,1366x768,1366x688,Part 1 completed,Colors_Only_Dutch,6,,Part 1 completed,Accuracy_level_0.55,823,/task/320040/6/asset/blue.png,,,,image-keyboard-response,8,24052,0.0-1.0-1.3,,1,test, ,0.5571428571428572,1,0.10741666666666666
10,1646657658423,07/03/2022 12:54:18,1646657656312,1,07/03/2022 13:54:16,73265,15,task-2gi1,,20141945,BLIND,5972885,Intro Experiment: General explanations,complete,,,computer,Desktop or Laptop,Mac OS 10.15.7,Safari 15.2,1366x768,1366x688,Part 1 completed,Colors_Only_Dutch,6,,Part 1 completed,Accuracy_level_0.55,,"<div style=""font-size:60px;"">  </div>",,,,html-keyboard-response,9,24157,0.0-1.0-0.4,,,,,,,
11,1646657659930,07/03/2022 12:54:19,1646657657817,1,07/03/2022 13:54:17,73265,15,task-2gi1,,20141945,BLIND,5972885,Intro Experiment: General explanations,complete,,,computer,Desktop or Laptop,Mac OS 10.15.7,Safari 15.2,1366x768,1366x688,Part 1 completed,Colors_Only_Dutch,6,,Part 1 completed,Accuracy_level_0.55,600.9999999999964,/task/320040/6/asset/blue.png,,,,image-keyboard-response,10,25662,0.0-1.0-1.4,,1,test, ,0.5777777777777778,1,0.13425
12,1646657660039,07/03/2022 12:54:20,1646657657920,1,07/03/2022 13:54:17,73265,15,task-2gi1,,20141945,BLIND,5972885,Intro Experiment: General explanations,complete,,,computer,Desktop or Laptop,Mac OS 10.15.7,Safari 15.2,1366x768,1366x688,Part 1 completed,Colors_Only_Dutch,6,,Part 1 completed,Accuracy_level_0.55,,"<div style=""font-size:60px;"">  </div>",,,,html-keyboard-response,11,25766,0.0-1.0-0.5,,,,,,,
13,1646657661535,07/03/2022 12:54:21,1646657659426,1,07/03/2022 13:54:19,73265,15,task-2gi1,,20141945,BLIND,5972885,Intro Experiment: General explanations,complete,,,computer,Desktop or Laptop,Mac OS 10.15.7,Safari 15.2,1366x768,1366x688,Part 1 completed,Colors_Only_Dutch,6,,Part 1 completed,Accuracy_level_0.55,,/task/320040/6/asset/red.png,,,,image-keyboard-response,12,27271,0.0-1.0-1.5,,,test,,0.5909090909090909,1,0.16106666666666666
14,1646657661629,07/03/2022 12:54:21,1646657659530,1,07/03/2022 13:54:19,73265,15,task-2gi1,,20141945,BLIND,5972885,Intro Experiment: General explanations,complete,,,computer,Desktop or Laptop,Mac OS 10.15.7,Safari 15.2,1366x768,1366x688,Part 1 completed,Colors_Only_Dutch,6,,Part 1 completed,Accuracy_level_0.55,,"<div style=""font-size:60px;"">  </div>",,,,html-keyboard-response,13,27376,0.0-1.0-0.6,,,,,,,
15,1646657663164,07/03/2022 12:54:23,1646657661041,1,07/03/2022 13:54:21,73265,15,task-2gi1,,20141945,BLIND,5972885,Intro Experiment: General explanations,complete,,,computer,Desktop or Laptop,Mac OS 10.15.7,Safari 15.2,1366x768,1366x688,Part 1 completed,Colors_Only_Dutch,6,,Part 1 completed,Accuracy_level_0.55,493.00000000000364,/task/320040/6/asset/red.png,,,,image-keyboard-response,14,28887,0.0-1.0-1.6,,1,test, ,0.6,1,0.18798333333333334
16,1646657663272,07/03/2022 12:54:23,1646657661146,1,07/03/2022 13:54:21,73265,15,task-2gi1,,20141945,BLIND,5972885,Intro Experiment: General explanations,complete,,,computer,Desktop or Laptop,Mac OS 10.15.7,Safari 15.2,1366x768,1366x688,Part 1 completed,Colors_Only_Dutch,6,,Part 1 completed,Accuracy_level_0.55,,"<div style=""font-size:60px;"">  </div>",,,,html-keyboard-response,15,28992,0.0-1.0-0.7,,,,,,,
17,1646657664809,07/03/2022 12:54:24,1646657662651,1,07/03/2022 13:54:22,73265,15,task-2gi1,,20141945,BLIND,5972885,Intro Experiment: General explanations,complete,,,computer,Desktop or Laptop,Mac OS 10.15.7,Safari 15.2,1366x768,1366x688,Part 1 completed,Colors_Only_Dutch,6,,Part 1 completed,Accuracy_level_0.55,,/task/320040/6/asset/green.png,,,,image-keyboard-response,16,30495,0.0-1.0-1.7,,,test,,0.6066666666666667,1,0.21481666666666666
1,1647787648917,20/03/2022 14:47:28,1647787647329,1,20/03/2022 15:47:27,73265,15,task-2gi1,,20578289,BLIND,6099386,Intro Experiment: General explanations,complete,,,computer,Desktop or Laptop,Windows 10,Chrome 99.0.4844.51,1536x864,1536x722,Part 1 completed,Colors_Only_Dutch,6,,Part 1 completed,Accuracy_level_0.55,31220.899999976158,,,,,instructions,0,31228,0.0-0.0,,,,,,,
2,1647787649052,20/03/2022 14:47:29,1647787647450,1,20/03/2022 15:47:27,73265,15,task-2gi1,,20578289,BLIND,6099386,Intro Experiment: General explanations,complete,,,computer,Desktop or Laptop,Windows 10,Chrome 99.0.4844.51,1536x864,1536x722,Part 1 completed,Colors_Only_Dutch,6,,Part 1 completed,Accuracy_level_0.55,,"<div style=""font-size:60px;"">  </div>",,,,html-keyboard-response,1,31350,0.0-1.0-0.0,,,,,,,
3,1647787650474,20/03/2022 14:47:30,1647787648953,1,20/03/2022 15:47:28,73265,15,task-2gi1,,20578289,BLIND,6099386,Intro Experiment: General explanations,complete,,,computer,Desktop or Laptop,Windows 10,Chrome 99.0.4844.51,1536x864,1536x722,Part 1 completed,Colors_Only_Dutch,6,,Part 1 completed,Accuracy_level_0.55,,/task/320040/6/asset/yellow.png,,,,image-keyboard-response,2,32853,0.0-1.0-1.0,,1,test, ,0,,0.027083333333333334
4,1647787650761,20/03/2022 14:47:30,1647787649057,1,20/03/2022 15:47:29,73265,15,task-2gi1,,20578289,BLIND,6099386,Intro Experiment: General explanations,complete,,,computer,Desktop or Laptop,Windows 10,Chrome 99.0.4844.51,1536x864,1536x722,Part 1 completed,Colors_Only_Dutch,6,,Part 1 completed,Accuracy_level_0.55,,"<div style=""font-size:60px;"">  </div>",,,,html-keyboard-response,3,32957,0.0-1.0-0.1,,,,,,,
5,1647787652074,20/03/2022 14:47:32,1647787650559,1,20/03/2022 15:47:30,73265,15,task-2gi1,,20578289,BLIND,6099386,Intro Experiment: General explanations,complete,,,computer,Desktop or Laptop,Windows 10,Chrome 99.0.4844.51,1536x864,1536x722,Part 1 completed,Colors_Only_Dutch,6,,Part 1 completed,Accuracy_level_0.55,624,/task/320040/6/asset/yellow.png,,,,image-keyboard-response,4,34459,0.0-1.0-1.1,,1,test, ,0.43333333333333335,1,0.05385
6,1647787652177,20/03/2022 14:47:32,1647787650662,1,20/03/2022 15:47:30,73265,15,task-2gi1,,20578289,BLIND,6099386,Intro Experiment: General explanations,complete,,,computer,Desktop or Laptop,Windows 10,Chrome 99.0.4844.51,1536x864,1536x722,Part 1 completed,Colors_Only_Dutch,6,,Part 1 completed,Accuracy_level_0.55,,"<div style=""font-size:60px;"">  </div>",,,,html-keyboard-response,5,34562,0.0-1.0-0.2,,,,,,,
7,1647787653664,20/03/2022 14:47:33,1647787652164,1,20/03/2022 15:47:32,73265,15,task-2gi1,,20578289,BLIND,6099386,Intro Experiment: General explanations,complete,,,computer,Desktop or Laptop,Windows 10,Chrome 99.0.4844.51,1536x864,1536x722,Part 1 completed,Colors_Only_Dutch,6,,Part 1 completed,Accuracy_level_0.55,706,/task/320040/6/asset/yellow.png,,,,image-keyboard-response,6,36064,0.0-1.0-1.2,,1,test, ,0.52,1,0.0806
8,1647787653868,20/03/2022 14:47:33,1647787652267,1,20/03/2022 15:47:32,73265,15,task-2gi1,,20578289,BLIND,6099386,Intro Experiment: General explanations,complete,,,computer,Desktop or Laptop,Windows 10,Chrome 99.0.4844.51,1536x864,1536x722,Part 1 completed,Colors_Only_Dutch,6,,Part 1 completed,Accuracy_level_0.55,,"<div style=""font-size:60px;"">  </div>",,,,html-keyboard-response,7,36167,0.0-1.0-0.3,,,,,,,
9,1647787655279,20/03/2022 14:47:35,1647787653770,1,20/03/2022 15:47:33,73265,15,task-2gi1,,20578289,BLIND,6099386,Intro Experiment: General explanations,complete,,,computer,Desktop or Laptop,Windows 10,Chrome 99.0.4844.51,1536x864,1536x722,Part 1 completed,Colors_Only_Dutch,6,,Part 1 completed,Accuracy_level_0.55,522.3999999761581,/task/320040/6/asset/yellow.png,,,,image-keyboard-response,8,37670,0.0-1.0-1.3,,1,test, ,0.5571428571428572,1,0.10736666666666667
10,1647787655454,20/03/2022 14:47:35,1647787653872,1,20/03/2022 15:47:33,73265,15,task-2gi1,,20578289,BLIND,6099386,Intro Experiment: General explanations,complete,,,computer,Desktop or Laptop,Windows 10,Chrome 99.0.4844.51,1536x864,1536x722,Part 1 completed,Colors_Only_Dutch,6,,Part 1 completed,Accuracy_level_0.55,,"<div style=""font-size:60px;"">  </div>",,,,html-keyboard-response,9,37772,0.0-1.0-0.4,,,,,,,
11,1647787656893,20/03/2022 14:47:36,1647787655375,1,20/03/2022 15:47:35,73265,15,task-2gi1,,20578289,BLIND,6099386,Intro Experiment: General explanations,complete,,,computer,Desktop or Laptop,Windows 10,Chrome 99.0.4844.51,1536x864,1536x722,Part 1 completed,Colors_Only_Dutch,6,,Part 1 completed,Accuracy_level_0.55,610.8999999761581,/task/320040/6/asset/yellow.png,,,,image-keyboard-response,10,39275,0.0-1.0-1.4,,1,test, ,0.5777777777777778,1,0.13411666666666666
12,1647787657002,20/03/2022 14:47:37,1647787655479,1,20/03/2022 15:47:35,73265,15,task-2gi1,,20578289,BLIND,6099386,Intro Experiment: General explanations,complete,,,computer,Desktop or Laptop,Windows 10,Chrome 99.0.4844.51,1536x864,1536x722,Part 1 completed,Colors_Only_Dutch,6,,Part 1 completed,Accuracy_level_0.55,,"<div style=""font-size:60px;"">  </div>",,,,html-keyboard-response,11,39379,0.0-1.0-0.5,,,,,,,
13,1647787658488,20/03/2022 14:47:38,1647787656982,1,20/03/2022 15:47:36,73265,15,task-2gi1,,20578289,BLIND,6099386,Intro Experiment: General explanations,complete,,,computer,Desktop or Laptop,Windows 10,Chrome 99.0.4844.51,1536x864,1536x722,Part 1 completed,Colors_Only_Dutch,6,,Part 1 completed,Accuracy_level_0.55,,/task/320040/6/asset/black.png,,,,image-keyboard-response,12,40882,0.0-1.0-1.5,,,test,,0.5909090909090909,1,0.1609
14,1647787658582,20/03/2022 14:47:38,1647787657085,1,20/03/2022 15:47:37,73265,15,task-2gi1,,20578289,BLIND,6099386,Intro Experiment: General explanations,complete,,,computer,Desktop or Laptop,Windows 10,Chrome 99.0.4844.51,1536x864,1536x722,Part 1 completed,Colors_Only_Dutch,6,,Part 1 completed,Accuracy_level_0.55,,"<div style=""font-size:60px;"">  </div>",,,,html-keyboard-response,13,40985,0.0-1.0-0.6,,,,,,,
15,1647787660095,20/03/2022 14:47:40,1647787658588,1,20/03/2022 15:47:38,73265,15,task-2gi1,,20578289,BLIND,6099386,Intro Experiment: General explanations,complete,,,computer,Desktop or Laptop,Windows 10,Chrome 99.0.4844.51,1536x864,1536x722,Part 1 completed,Colors_Only_Dutch,6,,Part 1 completed,Accuracy_level_0.55,,/task/320040/6/asset/black.png,,,,image-keyboard-response,14,42488,0.0-1.0-1.6,,1,test, ,0.5,,0.18766666666666668
16,1647787660298,20/03/2022 14:47:40,1647787658791,1,20/03/2022 15:47:38,73265,15,task-2gi1,,20578289,BLIND,6099386,Intro Experiment: General explanations,complete,,,computer,Desktop or Laptop,Windows 10,Chrome 99.0.4844.51,1536x864,1536x722,Part 1 completed,Colors_Only_Dutch,6,,Part 1 completed,Accuracy_level_0.55,,"<span style=""color:red;font-size:50px;font-weight: bold;"">FOUT!</span>",,,,html-keyboard-response,15,42691,0.0-1.0-2.6-0.6,,,,,,,
17,1647787660439,20/03/2022 14:47:40,1647787658894,1,20/03/2022 15:47:38,73265,15,task-2gi1,,20578289,BLIND,6099386,Intro Experiment: General explanations,complete,,,computer,Desktop or Laptop,Windows 10,Chrome 99.0.4844.51,1536x864,1536x722,Part 1 completed,Colors_Only_Dutch,6,,Part 1 completed,Accuracy_level_0.55,,"<div style=""font-size:60px;"">  </div>",,,,html-keyboard-response,16,42793,0.0-1.0-0.7,,,,,,,
18,1647787661900,20/03/2022 14:47:41,1647787660396,1,20/03/2022 15:47:40,73265,15,task-2gi1,,20578289,BLIND,6099386,Intro Experiment: General explanations,complete,,,computer,Desktop or Laptop,Windows 10,Chrome 99.0.4844.51,1536x864,1536x722,Part 1 completed,Colors_Only_Dutch,6,,Part 1 completed,Accuracy_level_0.55,1242.5,/task/320040/6/asset/black.png,,,,image-keyboard-response,17,44295,0.0-1.0-1.7,,1,test, ,0.4875,1,0.2178
1,1647520225880,17/03/2022 12:30:25,1647520225252,1,17/03/2022 13:30:25,73265,15,task-2gi1,,20492545,BLIND,6077360,Intro Experiment: General explanations,complete,,,computer,Desktop or Laptop,Windows 10,Chrome 99.0.4844.51,1536x864,1536x754,Part 1 completed,Colors_Only_Dutch,6,,Part 1 completed,Accuracy_level_0.55,17554.60000038147,,,,,instructions,0,17560,0.0-0.0,,,,,,,
2,1647520225984,17/03/2022 12:30:25,1647520225366,1,17/03/2022 13:30:25,73265,15,task-2gi1,,20492545,BLIND,6077360,Intro Experiment: General explanations,complete,,,computer,Desktop or Laptop,Windows 10,Chrome 99.0.4844.51,1536x864,1536x754,Part 1 completed,Colors_Only_Dutch,6,,Part 1 completed,Accuracy_level_0.55,,"<div style=""font-size:60px;"">  </div>",,,,html-keyboard-response,1,17674,0.0-1.0-0.0,,,,,,,
3,1647520227479,17/03/2022 12:30:27,1647520226874,1,17/03/2022 13:30:26,73265,15,task-2gi1,,20492545,BLIND,6077360,Intro Experiment: General explanations,complete,,,computer,Desktop or Laptop,Windows 10,Chrome 99.0.4844.51,1536x864,1536x754,Part 1 completed,Colors_Only_Dutch,6,,Part 1 completed,Accuracy_level_0.55,,/task/320040/6/asset/white.png,,,,image-keyboard-response,2,19181,0.0-1.0-1.0,,1,test, ,0,,0.027033333333333333
4,1647520227564,17/03/2022 12:30:27,1647520226983,1,17/03/2022 13:30:26,73265,15,task-2gi1,,20492545,BLIND,6077360,Intro Experiment: General explanations,complete,,,computer,Desktop or Laptop,Windows 10,Chrome 99.0.4844.51,1536x864,1536x754,Part 1 completed,Colors_Only_Dutch,6,,Part 1 completed,Accuracy_level_0.55,,"<div style=""font-size:60px;"">  </div>",,,,html-keyboard-response,3,19291,0.0-1.0-0.1,,,,,,,
5,1647520229076,17/03/2022 12:30:29,1647520228488,1,17/03/2022 13:30:28,73265,15,task-2gi1,,20492545,BLIND,6077360,Intro Experiment: General explanations,complete,,,computer,Desktop or Laptop,Windows 10,Chrome 99.0.4844.51,1536x864,1536x754,Part 1 completed,Colors_Only_Dutch,6,,Part 1 completed,Accuracy_level_0.55,653.2999997138977,/task/320040/6/asset/white.png,,,,image-keyboard-response,4,20796,0.0-1.0-1.1,,1,test, ,0.43333333333333335,1,0.05393333333333333
6,1647520229177,17/03/2022 12:30:29,1647520228597,1,17/03/2022 13:30:28,73265,15,task-2gi1,,20492545,BLIND,6077360,Intro Experiment: General explanations,complete,,,computer,Desktop or Laptop,Windows 10,Chrome 99.0.4844.51,1536x864,1536x754,Part 1 completed,Colors_Only_Dutch,6,,Part 1 completed,Accuracy_level_0.55,,"<div style=""font-size:60px;"">  </div>",,,,html-keyboard-response,5,20905,0.0-1.0-0.2,,,,,,,
7,1647520230702,17/03/2022 12:30:30,1647520230106,1,17/03/2022 13:30:30,73265,15,task-2gi1,,20492545,BLIND,6077360,Intro Experiment: General explanations,complete,,,computer,Desktop or Laptop,Windows 10,Chrome 99.0.4844.51,1536x864,1536x754,Part 1 completed,Colors_Only_Dutch,6,,Part 1 completed,Accuracy_level_0.55,,/task/320040/6/asset/yellow.png,,,,image-keyboard-response,6,22414,0.0-1.0-1.2,,,test,,0.52,1,0.0809
8,1647520230803,17/03/2022 12:30:30,1647520230214,1,17/03/2022 13:30:30,73265,15,task-2gi1,,20492545,BLIND,6077360,Intro Experiment: General explanations,complete,,,computer,Desktop or Laptop,Windows 10,Chrome 99.0.4844.51,1536x864,1536x754,Part 1 completed,Colors_Only_Dutch,6,,Part 1 completed,Accuracy_level_0.55,,"<div style=""font-size:60px;"">  </div>",,,,html-keyboard-response,7,22521,0.0-1.0-0.3,,,,,,,
9,1647520232322,17/03/2022 12:30:32,1647520231729,1,17/03/2022 13:30:31,73265,15,task-2gi1,,20492545,BLIND,6077360,Intro Experiment: General explanations,complete,,,computer,Desktop or Laptop,Windows 10,Chrome 99.0.4844.51,1536x864,1536x754,Part 1 completed,Colors_Only_Dutch,6,,Part 1 completed,Accuracy_level_0.55,449.40000009536743,/task/320040/6/asset/yellow.png,,,,image-keyboard-response,8,24037,0.0-1.0-1.3,,1,test, ,0.5571428571428572,1,0.10795
10,1647520232416,17/03/2022 12:30:32,1647520231838,1,17/03/2022 13:30:31,73265,15,task-2gi1,,20492545,BLIND,6077360,Intro Experiment: General explanations,complete,,,computer,Desktop or Laptop,Windows 10,Chrome 99.0.4844.51,1536x864,1536x754,Part 1 completed,Colors_Only_Dutch,6,,Part 1 completed,Accuracy_level_0.55,,"<div style=""font-size:60px;"">  </div>",,,,html-keyboard-response,9,24146,0.0-1.0-0.4,,,,,,,
11,1647520233947,17/03/2022 12:30:33,1647520233343,1,17/03/2022 13:30:33,73265,15,task-2gi1,,20492545,BLIND,6077360,Intro Experiment: General explanations,complete,,,computer,Desktop or Laptop,Windows 10,Chrome 99.0.4844.51,1536x864,1536x754,Part 1 completed,Colors_Only_Dutch,6,,Part 1 completed,Accuracy_level_0.55,,/task/320040/6/asset/yellow.png,,,,image-keyboard-response,10,25651,0.0-1.0-1.4,,1,test, ,0.43333333333333335,,0.13485
12,1647520234146,17/03/2022 12:30:34,1647520233560,1,17/03/2022 13:30:33,73265,15,task-2gi1,,20492545,BLIND,6077360,Intro Experiment: General explanations,complete,,,computer,Desktop or Laptop,Windows 10,Chrome 99.0.4844.51,1536x864,1536x754,Part 1 completed,Colors_Only_Dutch,6,,Part 1 completed,Accuracy_level_0.55,,"<span style=""color:red;font-size:50px;font-weight: bold;"">FOUT!</span>",,,,html-keyboard-response,11,25868,0.0-1.0-2.4-0.4,,,,,,,
13,1647520234245,17/03/2022 12:30:34,1647520233668,1,17/03/2022 13:30:33,73265,15,task-2gi1,,20492545,BLIND,6077360,Intro Experiment: General explanations,complete,,,computer,Desktop or Laptop,Windows 10,Chrome 99.0.4844.51,1536x864,1536x754,Part 1 completed,Colors_Only_Dutch,6,,Part 1 completed,Accuracy_level_0.55,,"<div style=""font-size:60px;"">  </div>",,,,html-keyboard-response,12,25976,0.0-1.0-0.5,,,,,,,
14,1647520235760,17/03/2022 12:30:35,1647520235172,1,17/03/2022 13:30:35,73265,15,task-2gi1,,20492545,BLIND,6077360,Intro Experiment: General explanations,complete,,,computer,Desktop or Laptop,Windows 10,Chrome 99.0.4844.51,1536x864,1536x754,Part 1 completed,Colors_Only_Dutch,6,,Part 1 completed,Accuracy_level_0.55,,/task/320040/6/asset/yellow.png,,,,image-keyboard-response,13,27480,0.0-1.0-1.5,,1,test, ,0.325,,0.16533333333333333
15,1647520235979,17/03/2022 12:30:35,1647520235390,1,17/03/2022 13:30:35,73265,15,task-2gi1,,20492545,BLIND,6077360,Intro Experiment: General explanations,complete,,,computer,Desktop or Laptop,Windows 10,Chrome 99.0.4844.51,1536x864,1536x754,Part 1 completed,Colors_Only_Dutch,6,,Part 1 completed,Accuracy_level_0.55,,"<span style=""color:red;font-size:50px;font-weight: bold;"">FOUT!</span>",,,,html-keyboard-response,14,27698,0.0-1.0-2.5-0.5,,,,,,,
16,1647520236089,17/03/2022 12:30:36,1647520235500,1,17/03/2022 13:30:35,73265,15,task-2gi1,,20492545,BLIND,6077360,Intro Experiment: General explanations,complete,,,computer,Desktop or Laptop,Windows 10,Chrome 99.0.4844.51,1536x864,1536x754,Part 1 completed,Colors_Only_Dutch,6,,Part 1 completed,Accuracy_level_0.55,,"<div style=""font-size:60px;"">  </div>",,,,html-keyboard-response,15,27808,0.0-1.0-0.6,,,,,,,
17,1647520237594,17/03/2022 12:30:37,1647520237004,1,17/03/2022 13:30:37,73265,15,task-2gi1,,20492545,BLIND,6077360,Intro Experiment: General explanations,complete,,,computer,Desktop or Laptop,Windows 10,Chrome 99.0.4844.51,1536x864,1536x754,Part 1 completed,Colors_Only_Dutch,6,,Part 1 completed,Accuracy_level_0.55,,/task/320040/6/asset/yellow.png,,,,image-keyboard-response,16,29311,0.0-1.0-1.6,,1,test, ,0.26,,0.19586666666666666
18,1647520237808,17/03/2022 12:30:37,1647520237219,1,17/03/2022 13:30:37,73265,15,task-2gi1,,20492545,BLIND,6077360,Intro Experiment: General explanations,complete,,,computer,Desktop or Laptop,Windows 10,Chrome 99.0.4844.51,1536x864,1536x754,Part 1 completed,Colors_Only_Dutch,6,,Part 1 completed,Accuracy_level_0.55,,"<span style=""color:red;font-size:50px;font-weight: bold;"">FOUT!</span>",,,,html-keyboard-response,17,29527,0.0-1.0-2.6-0.6,,,,,,,
19,1647520237910,17/03/2022 12:30:37,1647520237328,1,17/03/2022 13:30:37,73265,15,task-2gi1,,20492545,BLIND,6077360,Intro Experiment: General explanations,complete,,,computer,Desktop or Laptop,Windows 10,Chrome 99.0.4844.51,1536x864,1536x754,Part 1 completed,Colors_Only_Dutch,6,,Part 1 completed,Accuracy_level_0.55,,"<div style=""font-size:60px;"">  </div>",,,,html-keyboard-response,18,29636,0.0-1.0-0.7,,,,,,,
20,1647520239422,17/03/2022 12:30:39,1647520238831,1,17/03/2022 13:30:38,73265,15,task-2gi1,,20492545,BLIND,6077360,Intro Experiment: General explanations,complete,,,computer,Desktop or Laptop,Windows 10,Chrome 99.0.4844.51,1536x864,1536x754,Part 1 completed,Colors_Only_Dutch,6,,Part 1 completed,Accuracy_level_0.55,602.9000000953674,/task/320040/6/asset/yellow.png,,,,image-keyboard-response,19,31138,0.0-1.0-1.7,,1,test, ,0.2888888888888889,1,0.22631666666666667
1,1647508933994,17/03/2022 09:22:13,1647508933903,1,17/03/2022 10:22:13,73265,15,task-2gi1,,20484881,BLIND,6062612,Intro Experiment: General explanations,complete,,,computer,Desktop or Laptop,Mac OS 10.15.7,Safari 14.0,1440x900,1440x837,Part 1 completed,Colors_Only_Dutch,6,,Part 1 completed,Accuracy_level_0.55,15387.000000000002,,,,,instructions,0,15389,0.0-0.0,,,,,,,
2,1647508934209,17/03/2022 09:22:14,1647508934007,1,17/03/2022 10:22:14,73265,15,task-2gi1,,20484881,BLIND,6062612,Intro Experiment: General explanations,complete,,,computer,Desktop or Laptop,Mac OS 10.15.7,Safari 14.0,1440x900,1440x837,Part 1 completed,Colors_Only_Dutch,6,,Part 1 completed,Accuracy_level_0.55,,"<div style=""font-size:60px;"">  </div>",,,,html-keyboard-response,1,15493,0.0-1.0-0.0,,,,,,,
3,1647508935557,17/03/2022 09:22:15,1647508935510,1,17/03/2022 10:22:15,73265,15,task-2gi1,,20484881,BLIND,6062612,Intro Experiment: General explanations,complete,,,computer,Desktop or Laptop,Mac OS 10.15.7,Safari 14.0,1440x900,1440x837,Part 1 completed,Colors_Only_Dutch,6,,Part 1 completed,Accuracy_level_0.55,,/task/320040/6/asset/purple.png,,,,image-keyboard-response,2,16995,0.0-1.0-1.0,,1,test, ,0,,0.026783333333333333
4,1647508935665,17/03/2022 09:22:15,1647508935613,1,17/03/2022 10:22:15,73265,15,task-2gi1,,20484881,BLIND,6062612,Intro Experiment: General explanations,complete,,,computer,Desktop or Laptop,Mac OS 10.15.7,Safari 14.0,1440x900,1440x837,Part 1 completed,Colors_Only_Dutch,6,,Part 1 completed,Accuracy_level_0.55,,"<div style=""font-size:60px;"">  </div>",,,,html-keyboard-response,3,17099,0.0-1.0-0.1,,,,,,,
5,1647508937142,17/03/2022 09:22:17,1647508937118,1,17/03/2022 10:22:17,73265,15,task-2gi1,,20484881,BLIND,6062612,Intro Experiment: General explanations,complete,,,computer,Desktop or Laptop,Mac OS 10.15.7,Safari 14.0,1440x900,1440x837,Part 1 completed,Colors_Only_Dutch,6,,Part 1 completed,Accuracy_level_0.55,430,/task/320040/6/asset/purple.png,,,,image-keyboard-response,4,18604,0.0-1.0-1.1,,1,test, ,0.43333333333333335,1,0.05358333333333333
6,1647508937251,17/03/2022 09:22:17,1647508937221,1,17/03/2022 10:22:17,73265,15,task-2gi1,,20484881,BLIND,6062612,Intro Experiment: General explanations,complete,,,computer,Desktop or Laptop,Mac OS 10.15.7,Safari 14.0,1440x900,1440x837,Part 1 completed,Colors_Only_Dutch,6,,Part 1 completed,Accuracy_level_0.55,,"<div style=""font-size:60px;"">  </div>",,,,html-keyboard-response,5,18706,0.0-1.0-0.2,,,,,,,
7,1647508938750,17/03/2022 09:22:18,1647508938723,1,17/03/2022 10:22:18,73265,15,task-2gi1,,20484881,BLIND,6062612,Intro Experiment: General explanations,complete,,,computer,Desktop or Laptop,Mac OS 10.15.7,Safari 14.0,1440x900,1440x837,Part 1 completed,Colors_Only_Dutch,6,,Part 1 completed,Accuracy_level_0.55,,/task/320040/6/asset/purple.png,,,,image-keyboard-response,6,20209,0.0-1.0-1.2,,1,test, ,0.26,,0.08033333333333334
8,1647508938953,17/03/2022 09:22:18,1647508938927,1,17/03/2022 10:22:18,73265,15,task-2gi1,,20484881,BLIND,6062612,Intro Experiment: General explanations,complete,,,computer,Desktop or Laptop,Mac OS 10.15.7,Safari 14.0,1440x900,1440x837,Part 1 completed,Colors_Only_Dutch,6,,Part 1 completed,Accuracy_level_0.55,,"<span style=""color:red;font-size:50px;font-weight: bold;"">FOUT!</span>",,,,html-keyboard-response,7,20413,0.0-1.0-2.2-0.2,,,,,,,
9,1647508939062,17/03/2022 09:22:19,1647508939029,1,17/03/2022 10:22:19,73265,15,task-2gi1,,20484881,BLIND,6062612,Intro Experiment: General explanations,complete,,,computer,Desktop or Laptop,Mac OS 10.15.7,Safari 14.0,1440x900,1440x837,Part 1 completed,Colors_Only_Dutch,6,,Part 1 completed,Accuracy_level_0.55,,"<div style=""font-size:60px;"">  </div>",,,,html-keyboard-response,8,20515,0.0-1.0-0.3,,,,,,,
10,1647508940567,17/03/2022 09:22:20,1647508940533,1,17/03/2022 10:22:20,73265,15,task-2gi1,,20484881,BLIND,6062612,Intro Experiment: General explanations,complete,,,computer,Desktop or Laptop,Mac OS 10.15.7,Safari 14.0,1440x900,1440x837,Part 1 completed,Colors_Only_Dutch,6,,Part 1 completed,Accuracy_level_0.55,,/task/320040/6/asset/white.png,,,,image-keyboard-response,9,22018,0.0-1.0-1.3,,,test,,0.325,1,0.1105
11,1647508940660,17/03/2022 09:22:20,1647508940635,1,17/03/2022 10:22:20,73265,15,task-2gi1,,20484881,BLIND,6062612,Intro Experiment: General explanations,complete,,,computer,Desktop or Laptop,Mac OS 10.15.7,Safari 14.0,1440x900,1440x837,Part 1 completed,Colors_Only_Dutch,6,,Part 1 completed,Accuracy_level_0.55,,"<div style=""font-size:60px;"">  </div>",,,,html-keyboard-response,10,22121,0.0-1.0-0.4,,,,,,,
12,1647508942175,17/03/2022 09:22:22,1647508942140,1,17/03/2022 10:22:22,73265,15,task-2gi1,,20484881,BLIND,6062612,Intro Experiment: General explanations,complete,,,computer,Desktop or Laptop,Mac OS 10.15.7,Safari 14.0,1440x900,1440x837,Part 1 completed,Colors_Only_Dutch,6,,Part 1 completed,Accuracy_level_0.55,628,/task/320040/6/asset/white.png,,,,image-keyboard-response,11,23626,0.0-1.0-1.4,,1,test, ,0.39,1,0.13728333333333334
13,1647508942277,17/03/2022 09:22:22,1647508942241,1,17/03/2022 10:22:22,73265,15,task-2gi1,,20484881,BLIND,6062612,Intro Experiment: General explanations,complete,,,computer,Desktop or Laptop,Mac OS 10.15.7,Safari 14.0,1440x900,1440x837,Part 1 completed,Colors_Only_Dutch,6,,Part 1 completed,Accuracy_level_0.55,,"<div style=""font-size:60px;"">  </div>",,,,html-keyboard-response,12,23727,0.0-1.0-0.5,,,,,,,
14,1647508943777,17/03/2022 09:22:23,1647508943745,1,17/03/2022 10:22:23,73265,15,task-2gi1,,20484881,BLIND,6062612,Intro Experiment: General explanations,complete,,,computer,Desktop or Laptop,Mac OS 10.15.7,Safari 14.0,1440x900,1440x837,Part 1 completed,Colors_Only_Dutch,6,,Part 1 completed,Accuracy_level_0.55,,/task/320040/6/asset/purple.png,,,,image-keyboard-response,13,25231,0.0-1.0-1.5,,,test,,0.43333333333333335,1,0.16403333333333334
15,1647508943872,17/03/2022 09:22:23,1647508943847,1,17/03/2022 10:22:23,73265,15,task-2gi1,,20484881,BLIND,6062612,Intro Experiment: General explanations,complete,,,computer,Desktop or Laptop,Mac OS 10.15.7,Safari 14.0,1440x900,1440x837,Part 1 completed,Colors_Only_Dutch,6,,Part 1 completed,Accuracy_level_0.55,,"<div style=""font-size:60px;"">  </div>",,,,html-keyboard-response,14,25333,0.0-1.0-0.6,,,,,,,
16,1647508945390,17/03/2022 09:22:25,1647508945350,1,17/03/2022 10:22:25,73265,15,task-2gi1,,20484881,BLIND,6062612,Intro Experiment: General explanations,complete,,,computer,Desktop or Laptop,Mac OS 10.15.7,Safari 14.0,1440x900,1440x837,Part 1 completed,Colors_Only_Dutch,6,,Part 1 completed,Accuracy_level_0.55,,/task/320040/6/asset/white.png,,,,image-keyboard-response,15,26836,0.0-1.0-1.6,,,test,,0.4642857142857143,1,0.19078333333333333
17,1647508945514,17/03/2022 09:22:25,1647508945451,1,17/03/2022 10:22:25,73265,15,task-2gi1,,20484881,BLIND,6062612,Intro Experiment: General explanations,complete,,,computer,Desktop or Laptop,Mac OS 10.15.7,Safari 14.0,1440x900,1440x837,Part 1 completed,Colors_Only_Dutch,6,,Part 1 completed,Accuracy_level_0.55,,"<div style=""font-size:60px;"">  </div>",,,,html-keyboard-response,16,26937,0.0-1.0-0.7,,,,,,,
18,1647508946996,17/03/2022 09:22:26,1647508946955,1,17/03/2022 10:22:26,73265,15,task-2gi1,,20484881,BLIND,6062612,Intro Experiment: General explanations,complete,,,computer,Desktop or Laptop,Mac OS 10.15.7,Safari 14.0,1440x900,1440x837,Part 1 completed,Colors_Only_Dutch,6,,Part 1 completed,Accuracy_level_0.55,,/task/320040/6/asset/white.png,,,,image-keyboard-response,17,28441,0.0-1.0-1.7,,1,test, ,0.40625,,0.21753333333333333
19,1647508947199,17/03/2022 09:22:27,1647508947157,1,17/03/2022 10:22:27,73265,15,task-2gi1,,20484881,BLIND,6062612,Intro Experiment: General explanations,complete,,,computer,Desktop or Laptop,Mac OS 10.15.7,Safari 14.0,1440x900,1440x837,Part 1 completed,Colors_Only_Dutch,6,,Part 1 completed,Accuracy_level_0.55,,"<span style=""color:red;font-size:50px;font-weight: bold;"">FOUT!</span>",,,,html-keyboard-response,18,28643,0.0-1.0-2.7-0.7,,,,,,,
1,1647347541177,15/03/2022 12:32:21,1647347540915,1,15/03/2022 13:32:20,73265,15,task-2gi1,,20400566,BLIND,6052332,Intro Experiment: General explanations,complete,,,computer,Desktop or Laptop,Mac OS 10.15.7,Safari 15.1,1440x900,1440x820,Part 1 completed,Colors_Only_Dutch,6,,Part 1 completed,Accuracy_level_0.55,9387,,,,,instructions,0,9392,0.0-0.0,,,,,,,
2,1647347541259,15/03/2022 12:32:21,1647347541021,1,15/03/2022 13:32:21,73265,15,task-2gi1,,20400566,BLIND,6052332,Intro Experiment: General explanations,complete,,,computer,Desktop or Laptop,Mac OS 10.15.7,Safari 15.1,1440x900,1440x820,Part 1 completed,Colors_Only_Dutch,6,,Part 1 completed,Accuracy_level_0.55,,"<div style=""font-size:60px;"">  </div>",,,,html-keyboard-response,1,9498,0.0-1.0-0.0,,,,,,,
3,1647347542743,15/03/2022 12:32:22,1647347542528,1,15/03/2022 13:32:22,73265,15,task-2gi1,,20400566,BLIND,6052332,Intro Experiment: General explanations,complete,,,computer,Desktop or Laptop,Mac OS 10.15.7,Safari 15.1,1440x900,1440x820,Part 1 completed,Colors_Only_Dutch,6,,Part 1 completed,Accuracy_level_0.55,,/task/320040/6/asset/pink.png,,,,image-keyboard-response,2,11005,0.0-1.0-1.0,,1,test, ,0,,0.026883333333333332
4,1647347542838,15/03/2022 12:32:22,1647347542634,1,15/03/2022 13:32:22,73265,15,task-2gi1,,20400566,BLIND,6052332,Intro Experiment: General explanations,complete,,,computer,Desktop or Laptop,Mac OS 10.15.7,Safari 15.1,1440x900,1440x820,Part 1 completed,Colors_Only_Dutch,6,,Part 1 completed,Accuracy_level_0.55,,"<div style=""font-size:60px;"">  </div>",,,,html-keyboard-response,3,11112,0.0-1.0-0.1,,,,,,,
5,1647347544347,15/03/2022 12:32:24,1647347544149,1,15/03/2022 13:32:24,73265,15,task-2gi1,,20400566,BLIND,6052332,Intro Experiment: General explanations,complete,,,computer,Desktop or Laptop,Mac OS 10.15.7,Safari 15.1,1440x900,1440x820,Part 1 completed,Colors_Only_Dutch,6,,Part 1 completed,Accuracy_level_0.55,,/task/320040/6/asset/pink.png,,,,image-keyboard-response,4,12626,0.0-1.0-1.1,,1,test, ,0,,0.0539
6,1647347544544,15/03/2022 12:32:24,1647347544354,1,15/03/2022 13:32:24,73265,15,task-2gi1,,20400566,BLIND,6052332,Intro Experiment: General explanations,complete,,,computer,Desktop or Laptop,Mac OS 10.15.7,Safari 15.1,1440x900,1440x820,Part 1 completed,Colors_Only_Dutch,6,,Part 1 completed,Accuracy_level_0.55,,"<span style=""color:red;font-size:50px;font-weight: bold;"">FOUT!</span>",,,,html-keyboard-response,5,12832,0.0-1.0-2.1-0.1,,,,,,,
7,1647347544662,15/03/2022 12:32:24,1647347544460,1,15/03/2022 13:32:24,73265,15,task-2gi1,,20400566,BLIND,6052332,Intro Experiment: General explanations,complete,,,computer,Desktop or Laptop,Mac OS 10.15.7,Safari 15.1,1440x900,1440x820,Part 1 completed,Colors_Only_Dutch,6,,Part 1 completed,Accuracy_level_0.55,,"<div style=""font-size:60px;"">  </div>",,,,html-keyboard-response,6,12938,0.0-1.0-0.2,,,,,,,
8,1647347546187,15/03/2022 12:32:26,1647347545967,1,15/03/2022 13:32:25,73265,15,task-2gi1,,20400566,BLIND,6052332,Intro Experiment: General explanations,complete,,,computer,Desktop or Laptop,Mac OS 10.15.7,Safari 15.1,1440x900,1440x820,Part 1 completed,Colors_Only_Dutch,6,,Part 1 completed,Accuracy_level_0.55,607,/task/320040/6/asset/pink.png,,,,image-keyboard-response,7,14445,0.0-1.0-1.2,,1,test, ,0.21666666666666667,1,0.0842
9,1647347546273,15/03/2022 12:32:26,1647347546073,1,15/03/2022 13:32:26,73265,15,task-2gi1,,20400566,BLIND,6052332,Intro Experiment: General explanations,complete,,,computer,Desktop or Laptop,Mac OS 10.15.7,Safari 15.1,1440x900,1440x820,Part 1 completed,Colors_Only_Dutch,6,,Part 1 completed,Accuracy_level_0.55,,"<div style=""font-size:60px;"">  </div>",,,,html-keyboard-response,8,14551,0.0-1.0-0.3,,,,,,,
10,1647347547789,15/03/2022 12:32:27,1647347547579,1,15/03/2022 13:32:27,73265,15,task-2gi1,,20400566,BLIND,6052332,Intro Experiment: General explanations,complete,,,computer,Desktop or Laptop,Mac OS 10.15.7,Safari 15.1,1440x900,1440x820,Part 1 completed,Colors_Only_Dutch,6,,Part 1 completed,Accuracy_level_0.55,391,/task/320040/6/asset/pink.png,,,,image-keyboard-response,9,16056,0.0-1.0-1.3,,1,test, ,0.325,1,0.11106666666666666
11,1647347547873,15/03/2022 12:32:27,1647347547685,1,15/03/2022 13:32:27,73265,15,task-2gi1,,20400566,BLIND,6052332,Intro Experiment: General explanations,complete,,,computer,Desktop or Laptop,Mac OS 10.15.7,Safari 15.1,1440x900,1440x820,Part 1 completed,Colors_Only_Dutch,6,,Part 1 completed,Accuracy_level_0.55,,"<div style=""font-size:60px;"">  </div>",,,,html-keyboard-response,10,16163,0.0-1.0-0.4,,,,,,,
12,1647347549390,15/03/2022 12:32:29,1647347549189,1,15/03/2022 13:32:29,73265,15,task-2gi1,,20400566,BLIND,6052332,Intro Experiment: General explanations,complete,,,computer,Desktop or Laptop,Mac OS 10.15.7,Safari 15.1,1440x900,1440x820,Part 1 completed,Colors_Only_Dutch,6,,Part 1 completed,Accuracy_level_0.55,368,/task/320040/6/asset/pink.png,,,,image-keyboard-response,11,17667,0.0-1.0-1.4,,1,test, ,0.39,1,0.1379
13,1647347549507,15/03/2022 12:32:29,1647347549295,1,15/03/2022 13:32:29,73265,15,task-2gi1,,20400566,BLIND,6052332,Intro Experiment: General explanations,complete,,,computer,Desktop or Laptop,Mac OS 10.15.7,Safari 15.1,1440x900,1440x820,Part 1 completed,Colors_Only_Dutch,6,,Part 1 completed,Accuracy_level_0.55,,"<div style=""font-size:60px;"">  </div>",,,,html-keyboard-response,12,17773,0.0-1.0-0.5,,,,,,,
14,1647347551001,15/03/2022 12:32:31,1647347550802,1,15/03/2022 13:32:30,73265,15,task-2gi1,,20400566,BLIND,6052332,Intro Experiment: General explanations,complete,,,computer,Desktop or Laptop,Mac OS 10.15.7,Safari 15.1,1440x900,1440x820,Part 1 completed,Colors_Only_Dutch,6,,Part 1 completed,Accuracy_level_0.55,,/task/320040/6/asset/blue.png,,,,image-keyboard-response,13,19279,0.0-1.0-1.5,,,test,,0.43333333333333335,1,0.16478333333333334
15,1647347551107,15/03/2022 12:32:31,1647347550907,1,15/03/2022 13:32:30,73265,15,task-2gi1,,20400566,BLIND,6052332,Intro Experiment: General explanations,complete,,,computer,Desktop or Laptop,Mac OS 10.15.7,Safari 15.1,1440x900,1440x820,Part 1 completed,Colors_Only_Dutch,6,,Part 1 completed,Accuracy_level_0.55,,"<div style=""font-size:60px;"">  </div>",,,,html-keyboard-response,14,19385,0.0-1.0-0.6,,,,,,,
16,1647347552623,15/03/2022 12:32:32,1647347552422,1,15/03/2022 13:32:32,73265,15,task-2gi1,,20400566,BLIND,6052332,Intro Experiment: General explanations,complete,,,computer,Desktop or Laptop,Mac OS 10.15.7,Safari 15.1,1440x900,1440x820,Part 1 completed,Colors_Only_Dutch,6,,Part 1 completed,Accuracy_level_0.55,1022,/task/320040/6/asset/blue.png,,,,image-keyboard-response,15,20899,0.0-1.0-1.6,,1,test, ,0.4642857142857143,1,0.19176666666666667
17,1647347552721,15/03/2022 12:32:32,1647347552526,1,15/03/2022 13:32:32,73265,15,task-2gi1,,20400566,BLIND,6052332,Intro Experiment: General explanations,complete,,,computer,Desktop or Laptop,Mac OS 10.15.7,Safari 15.1,1440x900,1440x820,Part 1 completed,Colors_Only_Dutch,6,,Part 1 completed,Accuracy_level_0.55,,"<div style=""font-size:60px;"">  </div>",,,,html-keyboard-response,16,21004,0.0-1.0-0.7,,,,,,,
18,1647347554235,15/03/2022 12:32:34,1647347554032,1,15/03/2022 13:32:34,73265,15,task-2gi1,,20400566,BLIND,6052332,Intro Experiment: General explanations,complete,,,computer,Desktop or Laptop,Mac OS 10.15.7,Safari 15.1,1440x900,1440x820,Part 1 completed,Colors_Only_Dutch,6,,Part 1 completed,Accuracy_level_0.55,,/task/320040/6/asset/purple.png,,,,image-keyboard-response,17,22510,0.0-1.0-1.7,,,test,,0.4875,1,0.21861666666666665
1,1647255052681,14/03/2022 10:50:52,1647255051381,1,14/03/2022 11:50:51,73265,15,task-2gi1,,20359023,BLIND,6038054,Intro Experiment: General explanations,complete,,,computer,Desktop or Laptop,Mac OS 10.15.7,Chrome 99.0.4844.51,1440x900,1440x789,Part 1 completed,Colors_Only_Dutch,6,,Part 1 completed,Accuracy_level_0.55,15418.800000011921,,,,,instructions,0,15423,0.0-0.0,,,,,,,
2,1647255052759,14/03/2022 10:50:52,1647255051487,1,14/03/2022 11:50:51,73265,15,task-2gi1,,20359023,BLIND,6038054,Intro Experiment: General explanations,complete,,,computer,Desktop or Laptop,Mac OS 10.15.7,Chrome 99.0.4844.51,1440x900,1440x789,Part 1 completed,Colors_Only_Dutch,6,,Part 1 completed,Accuracy_level_0.55,,"<div style=""font-size:60px;"">  </div>",,,,html-keyboard-response,1,15530,0.0-1.0-0.0,,,,,,,
3,1647255054196,14/03/2022 10:50:54,1647255052996,1,14/03/2022 11:50:52,73265,15,task-2gi1,,20359023,BLIND,6038054,Intro Experiment: General explanations,complete,,,computer,Desktop or Laptop,Mac OS 10.15.7,Chrome 99.0.4844.51,1440x900,1440x789,Part 1 completed,Colors_Only_Dutch,6,,Part 1 completed,Accuracy_level_0.55,,/task/320040/6/asset/green.png,,,,image-keyboard-response,2,17038,0.0-1.0-1.0,,1,test, ,0,,0.026916666666666665
4,1647255054279,14/03/2022 10:50:54,1647255053101,1,14/03/2022 11:50:53,73265,15,task-2gi1,,20359023,BLIND,6038054,Intro Experiment: General explanations,complete,,,computer,Desktop or Laptop,Mac OS 10.15.7,Chrome 99.0.4844.51,1440x900,1440x789,Part 1 completed,Colors_Only_Dutch,6,,Part 1 completed,Accuracy_level_0.55,,"<div style=""font-size:60px;"">  </div>",,,,html-keyboard-response,3,17144,0.0-1.0-0.1,,,,,,,
5,1647255055781,14/03/2022 10:50:55,1647255054606,1,14/03/2022 11:50:54,73265,15,task-2gi1,,20359023,BLIND,6038054,Intro Experiment: General explanations,complete,,,computer,Desktop or Laptop,Mac OS 10.15.7,Chrome 99.0.4844.51,1440x900,1440x789,Part 1 completed,Colors_Only_Dutch,6,,Part 1 completed,Accuracy_level_0.55,,/task/320040/6/asset/pink.png,,,,image-keyboard-response,4,18649,0.0-1.0-1.1,,,test,,0.43333333333333335,1,0.05375
6,1647255055887,14/03/2022 10:50:55,1647255054711,1,14/03/2022 11:50:54,73265,15,task-2gi1,,20359023,BLIND,6038054,Intro Experiment: General explanations,complete,,,computer,Desktop or Laptop,Mac OS 10.15.7,Chrome 99.0.4844.51,1440x900,1440x789,Part 1 completed,Colors_Only_Dutch,6,,Part 1 completed,Accuracy_level_0.55,,"<div style=""font-size:60px;"">  </div>",,,,html-keyboard-response,5,18754,0.0-1.0-0.2,,,,,,,
7,1647255057390,14/03/2022 10:50:57,1647255056217,1,14/03/2022 11:50:56,73265,15,task-2gi1,,20359023,BLIND,6038054,Intro Experiment: General explanations,complete,,,computer,Desktop or Laptop,Mac OS 10.15.7,Chrome 99.0.4844.51,1440x900,1440x789,Part 1 completed,Colors_Only_Dutch,6,,Part 1 completed,Accuracy_level_0.55,613.1000000238419,/task/320040/6/asset/pink.png,,,,image-keyboard-response,6,20259,0.0-1.0-1.2,,1,test, ,0.52,1,0.0806
8,1647255057505,14/03/2022 10:50:57,1647255056322,1,14/03/2022 11:50:56,73265,15,task-2gi1,,20359023,BLIND,6038054,Intro Experiment: General explanations,complete,,,computer,Desktop or Laptop,Mac OS 10.15.7,Chrome 99.0.4844.51,1440x900,1440x789,Part 1 completed,Colors_Only_Dutch,6,,Part 1 completed,Accuracy_level_0.55,,"<div style=""font-size:60px;"">  </div>",,,,html-keyboard-response,7,20365,0.0-1.0-0.3,,,,,,,
9,1647255059002,14/03/2022 10:50:59,1647255057827,1,14/03/2022 11:50:57,73265,15,task-2gi1,,20359023,BLIND,6038054,Intro Experiment: General explanations,complete,,,computer,Desktop or Laptop,Mac OS 10.15.7,Chrome 99.0.4844.51,1440x900,1440x789,Part 1 completed,Colors_Only_Dutch,6,,Part 1 completed,Accuracy_level_0.55,,/task/320040/6/asset/black.png,,,,image-keyboard-response,8,21870,0.0-1.0-1.3,,,test,,0.5571428571428572,1,0.10743333333333334
10,1647255059100,14/03/2022 10:50:59,1647255057932,1,14/03/2022 11:50:57,73265,15,task-2gi1,,20359023,BLIND,6038054,Intro Experiment: General explanations,complete,,,computer,Desktop or Laptop,Mac OS 10.15.7,Chrome 99.0.4844.51,1440x900,1440x789,Part 1 completed,Colors_Only_Dutch,6,,Part 1 completed,Accuracy_level_0.55,,"<div style=""font-size:60px;"">  </div>",,,,html-keyboard-response,9,21975,0.0-1.0-0.4,,,,,,,
11,1647255060616,14/03/2022 10:51:00,1647255059438,1,14/03/2022 11:50:59,73265,15,task-2gi1,,20359023,BLIND,6038054,Intro Experiment: General explanations,complete,,,computer,Desktop or Laptop,Mac OS 10.15.7,Chrome 99.0.4844.51,1440x900,1440x789,Part 1 completed,Colors_Only_Dutch,6,,Part 1 completed,Accuracy_level_0.55,537,/task/320040/6/asset/black.png,,,,image-keyboard-response,10,23480,0.0-1.0-1.4,,1,test, ,0.5777777777777778,1,0.13426666666666667
12,1647255060706,14/03/2022 10:51:00,1647255059541,1,14/03/2022 11:50:59,73265,15,task-2gi1,,20359023,BLIND,6038054,Intro Experiment: General explanations,complete,,,computer,Desktop or Laptop,Mac OS 10.15.7,Chrome 99.0.4844.51,1440x900,1440x789,Part 1 completed,Colors_Only_Dutch,6,,Part 1 completed,Accuracy_level_0.55,,"<div style=""font-size:60px;"">  </div>",,,,html-keyboard-response,11,23584,0.0-1.0-0.5,,,,,,,
13,1647255062218,14/03/2022 10:51:02,1647255061048,1,14/03/2022 11:51:01,73265,15,task-2gi1,,20359023,BLIND,6038054,Intro Experiment: General explanations,complete,,,computer,Desktop or Laptop,Mac OS 10.15.7,Chrome 99.0.4844.51,1440x900,1440x789,Part 1 completed,Colors_Only_Dutch,6,,Part 1 completed,Accuracy_level_0.55,603,/task/320040/6/asset/black.png,,,,image-keyboard-response,12,25091,0.0-1.0-1.5,,1,test, ,0.5909090909090909,1,0.16111666666666666
14,1647255062333,14/03/2022 10:51:02,1647255061154,1,14/03/2022 11:51:01,73265,15,task-2gi1,,20359023,BLIND,6038054,Intro Experiment: General explanations,complete,,,computer,Desktop or Laptop,Mac OS 10.15.7,Chrome 99.0.4844.51,1440x900,1440x789,Part 1 completed,Colors_Only_Dutch,6,,Part 1 completed,Accuracy_level_0.55,,"<div style=""font-size:60px;"">  </div>",,,,html-keyboard-response,13,25196,0.0-1.0-0.6,,,,,,,
15,1647255063836,14/03/2022 10:51:03,1647255062659,1,14/03/2022 11:51:02,73265,15,task-2gi1,,20359023,BLIND,6038054,Intro Experiment: General explanations,complete,,,computer,Desktop or Laptop,Mac OS 10.15.7,Chrome 99.0.4844.51,1440x900,1440x789,Part 1 completed,Colors_Only_Dutch,6,,Part 1 completed,Accuracy_level_0.55,,/task/320040/6/asset/pink.png,,,,image-keyboard-response,14,26702,0.0-1.0-1.6,,,test,,0.6,1,0.18796666666666667
16,1647255063958,14/03/2022 10:51:03,1647255062764,1,14/03/2022 11:51:02,73265,15,task-2gi1,,20359023,BLIND,6038054,Intro Experiment: General explanations,complete,,,computer,Desktop or Laptop,Mac OS 10.15.7,Chrome 99.0.4844.51,1440x900,1440x789,Part 1 completed,Colors_Only_Dutch,6,,Part 1 completed,Accuracy_level_0.55,,"<div style=""font-size:60px;"">  </div>",,,,html-keyboard-response,15,26807,0.0-1.0-0.7,,,,,,,
17,1647255065460,14/03/2022 10:51:05,1647255064275,1,14/03/2022 11:51:04,73265,15,task-2gi1,,20359023,BLIND,6038054,Intro Experiment: General explanations,complete,,,computer,Desktop or Laptop,Mac OS 10.15.7,Chrome 99.0.4844.51,1440x900,1440x789,Part 1 completed,Colors_Only_Dutch,6,,Part 1 completed,Accuracy_level_0.55,499.2000000476837,/task/320040/6/asset/pink.png,,,,image-keyboard-response,16,28318,0.0-1.0-1.7,,1,test, ,0.6066666666666667,1,0.2149
1,1647100948748,12/03/2022 16:02:28,1647100948626,1,12/03/2022 17:02:28,73265,15,task-2gi1,,20323931,BLIND,6028207,Intro Experiment: General explanations,complete,,,computer,Desktop or Laptop,Mac OS 10.15.6,Safari 15.3,820x1180,1180x713,Part 1 completed,Colors_Only_Dutch,6,,Part 1 completed,Accuracy_level_0.55,36722,,,,,instructions,0,36722,0.0-0.0,,,,,,,
2,1647100948842,12/03/2022 16:02:28,1647100948730,1,12/03/2022 17:02:28,73265,15,task-2gi1,,20323931,BLIND,6028207,Intro Experiment: General explanations,complete,,,computer,Desktop or Laptop,Mac OS 10.15.6,Safari 15.3,820x1180,1180x713,Part 1 completed,Colors_Only_Dutch,6,,Part 1 completed,Accuracy_level_0.55,,"<div style=""font-size:60px;"">  </div>",,,,html-keyboard-response,1,36827,0.0-1.0-0.0,,,,,,,
3,1647100950311,12/03/2022 16:02:30,1647100950238,1,12/03/2022 17:02:30,73265,15,task-2gi1,,20323931,BLIND,6028207,Intro Experiment: General explanations,complete,,,computer,Desktop or Laptop,Mac OS 10.15.6,Safari 15.3,820x1180,1180x713,Part 1 completed,Colors_Only_Dutch,6,,Part 1 completed,Accuracy_level_0.55,,/task/320040/6/asset/yellow.png,,,,image-keyboard-response,2,38334,0.0-1.0-1.0,,1,test, ,0,,0.026883333333333332
4,1647100950420,12/03/2022 16:02:30,1647100950347,1,12/03/2022 17:02:30,73265,15,task-2gi1,,20323931,BLIND,6028207,Intro Experiment: General explanations,complete,,,computer,Desktop or Laptop,Mac OS 10.15.6,Safari 15.3,820x1180,1180x713,Part 1 completed,Colors_Only_Dutch,6,,Part 1 completed,Accuracy_level_0.55,,"<div style=""font-size:60px;"">  </div>",,,,html-keyboard-response,3,38443,0.0-1.0-0.1,,,,,,,
5,1647100951951,12/03/2022 16:02:31,1647100951855,1,12/03/2022 17:02:31,73265,15,task-2gi1,,20323931,BLIND,6028207,Intro Experiment: General explanations,complete,,,computer,Desktop or Laptop,Mac OS 10.15.6,Safari 15.3,820x1180,1180x713,Part 1 completed,Colors_Only_Dutch,6,,Part 1 completed,Accuracy_level_0.55,456,/task/320040/6/asset/yellow.png,,,,image-keyboard-response,4,39952,0.0-1.0-1.1,,1,test, ,0.43333333333333335,1,0.05383333333333333
6,1647100952038,12/03/2022 16:02:32,1647100951963,1,12/03/2022 17:02:31,73265,15,task-2gi1,,20323931,BLIND,6028207,Intro Experiment: General explanations,complete,,,computer,Desktop or Laptop,Mac OS 10.15.6,Safari 15.3,820x1180,1180x713,Part 1 completed,Colors_Only_Dutch,6,,Part 1 completed,Accuracy_level_0.55,,"<div style=""font-size:60px;"">  </div>",,,,html-keyboard-response,5,40060,0.0-1.0-0.2,,,,,,,
7,1647100953596,12/03/2022 16:02:33,1647100953472,1,12/03/2022 17:02:33,73265,15,task-2gi1,,20323931,BLIND,6028207,Intro Experiment: General explanations,complete,,,computer,Desktop or Laptop,Mac OS 10.15.6,Safari 15.3,820x1180,1180x713,Part 1 completed,Colors_Only_Dutch,6,,Part 1 completed,Accuracy_level_0.55,,/task/320040/6/asset/blue.png,,,,image-keyboard-response,6,41568,0.0-1.0-1.2,,,test,,0.52,1,0.08078333333333333
8,1647100953683,12/03/2022 16:02:33,1647100953580,1,12/03/2022 17:02:33,73265,15,task-2gi1,,20323931,BLIND,6028207,Intro Experiment: General explanations,complete,,,computer,Desktop or Laptop,Mac OS 10.15.6,Safari 15.3,820x1180,1180x713,Part 1 completed,Colors_Only_Dutch,6,,Part 1 completed,Accuracy_level_0.55,,"<div style=""font-size:60px;"">  </div>",,,,html-keyboard-response,7,41677,0.0-1.0-0.3,,,,,,,
9,1647100955166,12/03/2022 16:02:35,1647100955086,1,12/03/2022 17:02:35,73265,15,task-2gi1,,20323931,BLIND,6028207,Intro Experiment: General explanations,complete,,,computer,Desktop or Laptop,Mac OS 10.15.6,Safari 15.3,820x1180,1180x713,Part 1 completed,Colors_Only_Dutch,6,,Part 1 completed,Accuracy_level_0.55,505,/task/320040/6/asset/blue.png,,,,image-keyboard-response,8,43182,0.0-1.0-1.3,,1,test, ,0.5571428571428572,1,0.10766666666666666
10,1647100955268,12/03/2022 16:02:35,1647100955194,1,12/03/2022 17:02:35,73265,15,task-2gi1,,20323931,BLIND,6028207,Intro Experiment: General explanations,complete,,,computer,Desktop or Laptop,Mac OS 10.15.6,Safari 15.3,820x1180,1180x713,Part 1 completed,Colors_Only_Dutch,6,,Part 1 completed,Accuracy_level_0.55,,"<div style=""font-size:60px;"">  </div>",,,,html-keyboard-response,9,43290,0.0-1.0-0.4,,,,,,,
11,1647100956817,12/03/2022 16:02:36,1647100956703,1,12/03/2022 17:02:36,73265,15,task-2gi1,,20323931,BLIND,6028207,Intro Experiment: General explanations,complete,,,computer,Desktop or Laptop,Mac OS 10.15.6,Safari 15.3,820x1180,1180x713,Part 1 completed,Colors_Only_Dutch,6,,Part 1 completed,Accuracy_level_0.55,678,/task/320040/6/asset/blue.png,,,,image-keyboard-response,10,44799,0.0-1.0-1.4,,1,test, ,0.5777777777777778,1,0.13463333333333333
12,1647100956895,12/03/2022 16:02:36,1647100956810,1,12/03/2022 17:02:36,73265,15,task-2gi1,,20323931,BLIND,6028207,Intro Experiment: General explanations,complete,,,computer,Desktop or Laptop,Mac OS 10.15.6,Safari 15.3,820x1180,1180x713,Part 1 completed,Colors_Only_Dutch,6,,Part 1 completed,Accuracy_level_0.55,,"<div style=""font-size:60px;"">  </div>",,,,html-keyboard-response,11,44907,0.0-1.0-0.5,,,,,,,
13,1647100958396,12/03/2022 16:02:38,1647100958315,1,12/03/2022 17:02:38,73265,15,task-2gi1,,20323931,BLIND,6028207,Intro Experiment: General explanations,complete,,,computer,Desktop or Laptop,Mac OS 10.15.6,Safari 15.3,820x1180,1180x713,Part 1 completed,Colors_Only_Dutch,6,,Part 1 completed,Accuracy_level_0.55,,/task/320040/6/asset/purple.png,,,,image-keyboard-response,12,46412,0.0-1.0-1.5,,,test,,0.5909090909090909,1,0.1615
14,1647100958494,12/03/2022 16:02:38,1647100958422,1,12/03/2022 17:02:38,73265,15,task-2gi1,,20323931,BLIND,6028207,Intro Experiment: General explanations,complete,,,computer,Desktop or Laptop,Mac OS 10.15.6,Safari 15.3,820x1180,1180x713,Part 1 completed,Colors_Only_Dutch,6,,Part 1 completed,Accuracy_level_0.55,,"<div style=""font-size:60px;"">  </div>",,,,html-keyboard-response,13,46519,0.0-1.0-0.6,,,,,,,
15,1647100960050,12/03/2022 16:02:40,1647100959931,1,12/03/2022 17:02:39,73265,15,task-2gi1,,20323931,BLIND,6028207,Intro Experiment: General explanations,complete,,,computer,Desktop or Laptop,Mac OS 10.15.6,Safari 15.3,820x1180,1180x713,Part 1 completed,Colors_Only_Dutch,6,,Part 1 completed,Accuracy_level_0.55,378.9999999999927,/task/320040/6/asset/purple.png,,,,image-keyboard-response,14,48027,0.0-1.0-1.6,,1,test, ,0.6,1,0.18843333333333334
16,1647100960113,12/03/2022 16:02:40,1647100960039,1,12/03/2022 17:02:40,73265,15,task-2gi1,,20323931,BLIND,6028207,Intro Experiment: General explanations,complete,,,computer,Desktop or Laptop,Mac OS 10.15.6,Safari 15.3,820x1180,1180x713,Part 1 completed,Colors_Only_Dutch,6,,Part 1 completed,Accuracy_level_0.55,,"<div style=""font-size:60px;"">  </div>",,,,html-keyboard-response,15,48135,0.0-1.0-0.7,,,,,,,
17,1647100961629,12/03/2022 16:02:41,1647100961544,1,12/03/2022 17:02:41,73265,15,task-2gi1,,20323931,BLIND,6028207,Intro Experiment: General explanations,complete,,,computer,Desktop or Laptop,Mac OS 10.15.6,Safari 15.3,820x1180,1180x713,Part 1 completed,Colors_Only_Dutch,6,,Part 1 completed,Accuracy_level_0.55,,/task/320040/6/asset/red.png,,,,image-keyboard-response,16,49640,0.0-1.0-1.7,,,test,,0.6066666666666667,1,0.21531666666666666
1,1647029632988,11/03/2022 20:13:52,1647029632616,1,11/03/2022 21:13:52,73265,15,task-2gi1,,20312515,BLIND,6025452,Intro Experiment: General explanations,complete,,,computer,Desktop or Laptop,Chromium OS 14388.61.0,Chrome 98.0.4758.107,1536x864,1536x746,Part 1 completed,Colors_Only_Dutch,6,,Part 1 completed,Accuracy_level_0.55,24397,,,,,instructions,0,24404,0.0-0.0,,,,,,,
2,1647029633083,11/03/2022 20:13:53,1647029632733,1,11/03/2022 21:13:52,73265,15,task-2gi1,,20312515,BLIND,6025452,Intro Experiment: General explanations,complete,,,computer,Desktop or Laptop,Chromium OS 14388.61.0,Chrome 98.0.4758.107,1536x864,1536x746,Part 1 completed,Colors_Only_Dutch,6,,Part 1 completed,Accuracy_level_0.55,,"<div style=""font-size:60px;"">  </div>",,,,html-keyboard-response,1,24522,0.0-1.0-0.0,,,,,,,
3,1647029634574,11/03/2022 20:13:54,1647029634237,1,11/03/2022 21:13:54,73265,15,task-2gi1,,20312515,BLIND,6025452,Intro Experiment: General explanations,complete,,,computer,Desktop or Laptop,Chromium OS 14388.61.0,Chrome 98.0.4758.107,1536x864,1536x746,Part 1 completed,Colors_Only_Dutch,6,,Part 1 completed,Accuracy_level_0.55,,/task/320040/6/asset/green.png,,,,image-keyboard-response,2,26025,0.0-1.0-1.0,,1,test, ,0,,0.027016666666666668
4,1647029634677,11/03/2022 20:13:54,1647029634340,1,11/03/2022 21:13:54,73265,15,task-2gi1,,20312515,BLIND,6025452,Intro Experiment: General explanations,complete,,,computer,Desktop or Laptop,Chromium OS 14388.61.0,Chrome 98.0.4758.107,1536x864,1536x746,Part 1 completed,Colors_Only_Dutch,6,,Part 1 completed,Accuracy_level_0.55,,"<div style=""font-size:60px;"">  </div>",,,,html-keyboard-response,3,26129,0.0-1.0-0.1,,,,,,,
5,1647029636168,11/03/2022 20:13:56,1647029635843,1,11/03/2022 21:13:55,73265,15,task-2gi1,,20312515,BLIND,6025452,Intro Experiment: General explanations,complete,,,computer,Desktop or Laptop,Chromium OS 14388.61.0,Chrome 98.0.4758.107,1536x864,1536x746,Part 1 completed,Colors_Only_Dutch,6,,Part 1 completed,Accuracy_level_0.55,439.5,/task/320040/6/asset/green.png,,,,image-keyboard-response,4,27632,0.0-1.0-1.1,,1,test, ,0.43333333333333335,1,0.053783333333333336
6,1647029636302,11/03/2022 20:13:56,1647029635947,1,11/03/2022 21:13:55,73265,15,task-2gi1,,20312515,BLIND,6025452,Intro Experiment: General explanations,complete,,,computer,Desktop or Laptop,Chromium OS 14388.61.0,Chrome 98.0.4758.107,1536x864,1536x746,Part 1 completed,Colors_Only_Dutch,6,,Part 1 completed,Accuracy_level_0.55,,"<div style=""font-size:60px;"">  </div>",,,,html-keyboard-response,5,27736,0.0-1.0-0.2,,,,,,,
7,1647029637763,11/03/2022 20:13:57,1647029637450,1,11/03/2022 21:13:57,73265,15,task-2gi1,,20312515,BLIND,6025452,Intro Experiment: General explanations,complete,,,computer,Desktop or Laptop,Chromium OS 14388.61.0,Chrome 98.0.4758.107,1536x864,1536x746,Part 1 completed,Colors_Only_Dutch,6,,Part 1 completed,Accuracy_level_0.55,373.3999999985099,/task/320040/6/asset/green.png,,,,image-keyboard-response,6,29239,0.0-1.0-1.2,,1,test, ,0.52,1,0.08056666666666666
8,1647029637910,11/03/2022 20:13:57,1647029637554,1,11/03/2022 21:13:57,73265,15,task-2gi1,,20312515,BLIND,6025452,Intro Experiment: General explanations,complete,,,computer,Desktop or Laptop,Chromium OS 14388.61.0,Chrome 98.0.4758.107,1536x864,1536x746,Part 1 completed,Colors_Only_Dutch,6,,Part 1 completed,Accuracy_level_0.55,,"<div style=""font-size:60px;"">  </div>",,,,html-keyboard-response,7,29343,0.0-1.0-0.3,,,,,,,
9,1647029639349,11/03/2022 20:13:59,1647029639056,1,11/03/2022 21:13:59,73265,15,task-2gi1,,20312515,BLIND,6025452,Intro Experiment: General explanations,complete,,,computer,Desktop or Laptop,Chromium OS 14388.61.0,Chrome 98.0.4758.107,1536x864,1536x746,Part 1 completed,Colors_Only_Dutch,6,,Part 1 completed,Accuracy_level_0.55,366.5,/task/320040/6/asset/green.png,,,,image-keyboard-response,8,30845,0.0-1.0-1.3,,1,test, ,0.5571428571428572,1,0.10733333333333334
10,1647029639450,11/03/2022 20:13:59,1647029639160,1,11/03/2022 21:13:59,73265,15,task-2gi1,,20312515,BLIND,6025452,Intro Experiment: General explanations,complete,,,computer,Desktop or Laptop,Chromium OS 14388.61.0,Chrome 98.0.4758.107,1536x864,1536x746,Part 1 completed,Colors_Only_Dutch,6,,Part 1 completed,Accuracy_level_0.55,,"<div style=""font-size:60px;"">  </div>",,,,html-keyboard-response,9,30949,0.0-1.0-0.4,,,,,,,
11,1647029640969,11/03/2022 20:14:00,1647029640665,1,11/03/2022 21:14:00,73265,15,task-2gi1,,20312515,BLIND,6025452,Intro Experiment: General explanations,complete,,,computer,Desktop or Laptop,Chromium OS 14388.61.0,Chrome 98.0.4758.107,1536x864,1536x746,Part 1 completed,Colors_Only_Dutch,6,,Part 1 completed,Accuracy_level_0.55,,/task/320040/6/asset/white.png,,,,image-keyboard-response,10,32453,0.0-1.0-1.4,,,test,,0.5777777777777778,1,0.13415
12,1647029641080,11/03/2022 20:14:01,1647029640768,1,11/03/2022 21:14:00,73265,15,task-2gi1,,20312515,BLIND,6025452,Intro Experiment: General explanations,complete,,,computer,Desktop or Laptop,Chromium OS 14388.61.0,Chrome 98.0.4758.107,1536x864,1536x746,Part 1 completed,Colors_Only_Dutch,6,,Part 1 completed,Accuracy_level_0.55,,"<div style=""font-size:60px;"">  </div>",,,,html-keyboard-response,11,32557,0.0-1.0-0.5,,,,,,,
13,1647029642568,11/03/2022 20:14:02,1647029642271,1,11/03/2022 21:14:02,73265,15,task-2gi1,,20312515,BLIND,6025452,Intro Experiment: General explanations,complete,,,computer,Desktop or Laptop,Chromium OS 14388.61.0,Chrome 98.0.4758.107,1536x864,1536x746,Part 1 completed,Colors_Only_Dutch,6,,Part 1 completed,Accuracy_level_0.55,,/task/320040/6/asset/green.png,,,,image-keyboard-response,12,34060,0.0-1.0-1.5,,,test,,0.5909090909090909,1,0.16091666666666668
14,1647029642726,11/03/2022 20:14:02,1647029642375,1,11/03/2022 21:14:02,73265,15,task-2gi1,,20312515,BLIND,6025452,Intro Experiment: General explanations,complete,,,computer,Desktop or Laptop,Chromium OS 14388.61.0,Chrome 98.0.4758.107,1536x864,1536x746,Part 1 completed,Colors_Only_Dutch,6,,Part 1 completed,Accuracy_level_0.55,,"<div style=""font-size:60px;"">  </div>",,,,html-keyboard-response,13,34164,0.0-1.0-0.6,,,,,,,
15,1647029644181,11/03/2022 20:14:04,1647029643878,1,11/03/2022 21:14:03,73265,15,task-2gi1,,20312515,BLIND,6025452,Intro Experiment: General explanations,complete,,,computer,Desktop or Laptop,Chromium OS 14388.61.0,Chrome 98.0.4758.107,1536x864,1536x746,Part 1 completed,Colors_Only_Dutch,6,,Part 1 completed,Accuracy_level_0.55,,/task/320040/6/asset/green.png,,,,image-keyboard-response,14,35666,0.0-1.0-1.6,,1,test, ,0.5,,0.1877
16,1647029644373,11/03/2022 20:14:04,1647029644081,1,11/03/2022 21:14:04,73265,15,task-2gi1,,20312515,BLIND,6025452,Intro Experiment: General explanations,complete,,,computer,Desktop or Laptop,Chromium OS 14388.61.0,Chrome 98.0.4758.107,1536x864,1536x746,Part 1 completed,Colors_Only_Dutch,6,,Part 1 completed,Accuracy_level_0.55,,"<span style=""color:red;font-size:50px;font-weight: bold;"">FOUT!</span>",,,,html-keyboard-response,15,35869,0.0-1.0-2.6-0.6,,,,,,,
17,1647029644556,11/03/2022 20:14:04,1647029644184,1,11/03/2022 21:14:04,73265,15,task-2gi1,,20312515,BLIND,6025452,Intro Experiment: General explanations,complete,,,computer,Desktop or Laptop,Chromium OS 14388.61.0,Chrome 98.0.4758.107,1536x864,1536x746,Part 1 completed,Colors_Only_Dutch,6,,Part 1 completed,Accuracy_level_0.55,,"<div style=""font-size:60px;"">  </div>",,,,html-keyboard-response,16,35972,0.0-1.0-0.7,,,,,,,
18,1647029645983,11/03/2022 20:14:05,1647029645686,1,11/03/2022 21:14:05,73265,15,task-2gi1,,20312515,BLIND,6025452,Intro Experiment: General explanations,complete,,,computer,Desktop or Laptop,Chromium OS 14388.61.0,Chrome 98.0.4758.107,1536x864,1536x746,Part 1 completed,Colors_Only_Dutch,6,,Part 1 completed,Accuracy_level_0.55,,/task/320040/6/asset/blue.png,,,,image-keyboard-response,17,37474,0.0-1.0-1.7,,,test,,0.4875,1,0.21783333333333332
1,1647003740135,11/03/2022 13:02:20,1647003737971,1,11/03/2022 14:02:17,73265,15,task-2gi1,,20299237,BLIND,6021035,Intro Experiment: General explanations,complete,,,computer,Desktop or Laptop,Windows 10,Chrome 99.0.4844.51,1536x864,1536x722,Part 1 completed,Colors_Only_Dutch,6,,Part 1 completed,Accuracy_level_0.55,25388.400000000023,,,,,instructions,0,25397,0.0-0.0,,,,,,,
2,1647003740204,11/03/2022 13:02:20,1647003738112,1,11/03/2022 14:02:18,73265,15,task-2gi1,,20299237,BLIND,6021035,Intro Experiment: General explanations,complete,,,computer,Desktop or Laptop,Windows 10,Chrome 99.0.4844.51,1536x864,1536x722,Part 1 completed,Colors_Only_Dutch,6,,Part 1 completed,Accuracy_level_0.55,,"<div style=""font-size:60px;"">  </div>",,,,html-keyboard-response,1,25539,0.0-1.0-0.0,,,,,,,
3,1647003741696,11/03/2022 13:02:21,1647003739623,1,11/03/2022 14:02:19,73265,15,task-2gi1,,20299237,BLIND,6021035,Intro Experiment: General explanations,complete,,,computer,Desktop or Laptop,Windows 10,Chrome 99.0.4844.51,1536x864,1536x722,Part 1 completed,Colors_Only_Dutch,6,,Part 1 completed,Accuracy_level_0.55,,/task/320040/6/asset/black.png,,,,image-keyboard-response,2,27049,0.0-1.0-1.0,,1,test, ,0,,0.02755
4,1647003742001,11/03/2022 13:02:22,1647003739734,1,11/03/2022 14:02:19,73265,15,task-2gi1,,20299237,BLIND,6021035,Intro Experiment: General explanations,complete,,,computer,Desktop or Laptop,Windows 10,Chrome 99.0.4844.51,1536x864,1536x722,Part 1 completed,Colors_Only_Dutch,6,,Part 1 completed,Accuracy_level_0.55,,"<div style=""font-size:60px;"">  </div>",,,,html-keyboard-response,3,27161,0.0-1.0-0.1,,,,,,,
5,1647003743317,11/03/2022 13:02:23,1647003741238,1,11/03/2022 14:02:21,73265,15,task-2gi1,,20299237,BLIND,6021035,Intro Experiment: General explanations,complete,,,computer,Desktop or Laptop,Windows 10,Chrome 99.0.4844.51,1536x864,1536x722,Part 1 completed,Colors_Only_Dutch,6,,Part 1 completed,Accuracy_level_0.55,417.30000000004657,/task/320040/6/asset/black.png,,,,image-keyboard-response,4,28665,0.0-1.0-1.1,,1,test, ,0.43333333333333335,1,0.05446666666666666
6,1647003743567,11/03/2022 13:02:23,1647003741345,1,11/03/2022 14:02:21,73265,15,task-2gi1,,20299237,BLIND,6021035,Intro Experiment: General explanations,complete,,,computer,Desktop or Laptop,Windows 10,Chrome 99.0.4844.51,1536x864,1536x722,Part 1 completed,Colors_Only_Dutch,6,,Part 1 completed,Accuracy_level_0.55,,"<div style=""font-size:60px;"">  </div>",,,,html-keyboard-response,5,28771,0.0-1.0-0.2,,,,,,,
7,1647003744933,11/03/2022 13:02:24,1647003742855,1,11/03/2022 14:02:22,73265,15,task-2gi1,,20299237,BLIND,6021035,Intro Experiment: General explanations,complete,,,computer,Desktop or Laptop,Windows 10,Chrome 99.0.4844.51,1536x864,1536x722,Part 1 completed,Colors_Only_Dutch,6,,Part 1 completed,Accuracy_level_0.55,440,/task/320040/6/asset/black.png,,,,image-keyboard-response,6,30281,0.0-1.0-1.2,,1,test, ,0.52,1,0.08141666666666666
8,1647003745249,11/03/2022 13:02:25,1647003742987,1,11/03/2022 14:02:22,73265,15,task-2gi1,,20299237,BLIND,6021035,Intro Experiment: General explanations,complete,,,computer,Desktop or Laptop,Windows 10,Chrome 99.0.4844.51,1536x864,1536x722,Part 1 completed,Colors_Only_Dutch,6,,Part 1 completed,Accuracy_level_0.55,,"<div style=""font-size:60px;"">  </div>",,,,html-keyboard-response,7,30414,0.0-1.0-0.3,,,,,,,
9,1647003746573,11/03/2022 13:02:26,1647003744499,1,11/03/2022 14:02:24,73265,15,task-2gi1,,20299237,BLIND,6021035,Intro Experiment: General explanations,complete,,,computer,Desktop or Laptop,Windows 10,Chrome 99.0.4844.51,1536x864,1536x722,Part 1 completed,Colors_Only_Dutch,6,,Part 1 completed,Accuracy_level_0.55,326.4000000000233,/task/320040/6/asset/black.png,,,,image-keyboard-response,8,31926,0.0-1.0-1.3,,1,test, ,0.5571428571428572,1,0.10881666666666667
10,1647003746900,11/03/2022 13:02:26,1647003744612,1,11/03/2022 14:02:24,73265,15,task-2gi1,,20299237,BLIND,6021035,Intro Experiment: General explanations,complete,,,computer,Desktop or Laptop,Windows 10,Chrome 99.0.4844.51,1536x864,1536x722,Part 1 completed,Colors_Only_Dutch,6,,Part 1 completed,Accuracy_level_0.55,,"<div style=""font-size:60px;"">  </div>",,,,html-keyboard-response,9,32039,0.0-1.0-0.4,,,,,,,
11,1647003748196,11/03/2022 13:02:28,1647003746117,1,11/03/2022 14:02:26,73265,15,task-2gi1,,20299237,BLIND,6021035,Intro Experiment: General explanations,complete,,,computer,Desktop or Laptop,Windows 10,Chrome 99.0.4844.51,1536x864,1536x722,Part 1 completed,Colors_Only_Dutch,6,,Part 1 completed,Accuracy_level_0.55,342.4000000000233,/task/320040/6/asset/black.png,,,,image-keyboard-response,10,33544,0.0-1.0-1.4,,1,test, ,0.5777777777777778,1,0.13578333333333334
12,1647003748450,11/03/2022 13:02:28,1647003746223,1,11/03/2022 14:02:26,73265,15,task-2gi1,,20299237,BLIND,6021035,Intro Experiment: General explanations,complete,,,computer,Desktop or Laptop,Windows 10,Chrome 99.0.4844.51,1536x864,1536x722,Part 1 completed,Colors_Only_Dutch,6,,Part 1 completed,Accuracy_level_0.55,,"<div style=""font-size:60px;"">  </div>",,,,html-keyboard-response,11,33650,0.0-1.0-0.5,,,,,,,
13,1647003749809,11/03/2022 13:02:29,1647003747726,1,11/03/2022 14:02:27,73265,15,task-2gi1,,20299237,BLIND,6021035,Intro Experiment: General explanations,complete,,,computer,Desktop or Laptop,Windows 10,Chrome 99.0.4844.51,1536x864,1536x722,Part 1 completed,Colors_Only_Dutch,6,,Part 1 completed,Accuracy_level_0.55,,/task/320040/6/asset/blue.png,,,,image-keyboard-response,12,35153,0.0-1.0-1.5,,,test,,0.5909090909090909,1,0.1626
14,1647003749904,11/03/2022 13:02:29,1647003747837,1,11/03/2022 14:02:27,73265,15,task-2gi1,,20299237,BLIND,6021035,Intro Experiment: General explanations,complete,,,computer,Desktop or Laptop,Windows 10,Chrome 99.0.4844.51,1536x864,1536x722,Part 1 completed,Colors_Only_Dutch,6,,Part 1 completed,Accuracy_level_0.55,,"<div style=""font-size:60px;"">  </div>",,,,html-keyboard-response,13,35262,0.0-1.0-0.6,,,,,,,
15,1647003751428,11/03/2022 13:02:31,1647003749349,1,11/03/2022 14:02:29,73265,15,task-2gi1,,20299237,BLIND,6021035,Intro Experiment: General explanations,complete,,,computer,Desktop or Laptop,Windows 10,Chrome 99.0.4844.51,1536x864,1536x722,Part 1 completed,Colors_Only_Dutch,6,,Part 1 completed,Accuracy_level_0.55,,/task/320040/6/asset/purple.png,,,,image-keyboard-response,14,36776,0.0-1.0-1.6,,,test,,0.6,1,0.18965
16,1647003751862,11/03/2022 13:02:31,1647003749460,1,11/03/2022 14:02:29,73265,15,task-2gi1,,20299237,BLIND,6021035,Intro Experiment: General explanations,complete,,,computer,Desktop or Laptop,Windows 10,Chrome 99.0.4844.51,1536x864,1536x722,Part 1 completed,Colors_Only_Dutch,6,,Part 1 completed,Accuracy_level_0.55,,"<div style=""font-size:60px;"">  </div>",,,,html-keyboard-response,15,36887,0.0-1.0-0.7,,,,,,,
17,1647003753042,11/03/2022 13:02:33,1647003750967,1,11/03/2022 14:02:30,73265,15,task-2gi1,,20299237,BLIND,6021035,Intro Experiment: General explanations,complete,,,computer,Desktop or Laptop,Windows 10,Chrome 99.0.4844.51,1536x864,1536x722,Part 1 completed,Colors_Only_Dutch,6,,Part 1 completed,Accuracy_level_0.55,365.5999999999767,/task/320040/6/asset/purple.png,,,,image-keyboard-response,16,38394,0.0-1.0-1.7,,1,test, ,0.6066666666666667,1,0.21661666666666668
1,1646840379659,09/03/2022 15:39:39,1646840380470,1,09/03/2022 16:39:40,73265,15,task-2gi1,,20237368,BLIND,6003084,Intro Experiment: General explanations,complete,,,computer,Desktop or Laptop,Mac OS 10.14.6,Chrome 98.0.4758.102,1280x800,1244x555,Part 1 completed,Colors_Only_Dutch,6,,Part 1 completed,Accuracy_level_0.55,21777.600000023842,,,,,instructions,0,21782,0.0-0.0,,,,,,,
2,1646840379722,09/03/2022 15:39:39,1646840380584,1,09/03/2022 16:39:40,73265,15,task-2gi1,,20237368,BLIND,6003084,Intro Experiment: General explanations,complete,,,computer,Desktop or Laptop,Mac OS 10.14.6,Chrome 98.0.4758.102,1280x800,1244x555,Part 1 completed,Colors_Only_Dutch,6,,Part 1 completed,Accuracy_level_0.55,,"<div style=""font-size:60px;"">  </div>",,,,html-keyboard-response,1,21897,0.0-1.0-0.0,,,,,,,
3,1646840381183,09/03/2022 15:39:41,1646840382088,1,09/03/2022 16:39:42,73265,15,task-2gi1,,20237368,BLIND,6003084,Intro Experiment: General explanations,complete,,,computer,Desktop or Laptop,Mac OS 10.14.6,Chrome 98.0.4758.102,1280x800,1244x555,Part 1 completed,Colors_Only_Dutch,6,,Part 1 completed,Accuracy_level_0.55,,/task/320040/6/asset/pink.png,,,,image-keyboard-response,2,23401,0.0-1.0-1.0,,1,test, ,0,,0.026983333333333335
4,1646840381293,09/03/2022 15:39:41,1646840382194,1,09/03/2022 16:39:42,73265,15,task-2gi1,,20237368,BLIND,6003084,Intro Experiment: General explanations,complete,,,computer,Desktop or Laptop,Mac OS 10.14.6,Chrome 98.0.4758.102,1280x800,1244x555,Part 1 completed,Colors_Only_Dutch,6,,Part 1 completed,Accuracy_level_0.55,,"<div style=""font-size:60px;"">  </div>",,,,html-keyboard-response,3,23507,0.0-1.0-0.1,,,,,,,
5,1646840382823,09/03/2022 15:39:42,1646840383701,1,09/03/2022 16:39:43,73265,15,task-2gi1,,20237368,BLIND,6003084,Intro Experiment: General explanations,complete,,,computer,Desktop or Laptop,Mac OS 10.14.6,Chrome 98.0.4758.102,1280x800,1244x555,Part 1 completed,Colors_Only_Dutch,6,,Part 1 completed,Accuracy_level_0.55,884.5999999642372,/task/320040/6/asset/pink.png,,,,image-keyboard-response,4,25014,0.0-1.0-1.1,,1,test, ,0.43333333333333335,1,0.05386666666666667
6,1646840382902,09/03/2022 15:39:42,1646840383803,1,09/03/2022 16:39:43,73265,15,task-2gi1,,20237368,BLIND,6003084,Intro Experiment: General explanations,complete,,,computer,Desktop or Laptop,Mac OS 10.14.6,Chrome 98.0.4758.102,1280x800,1244x555,Part 1 completed,Colors_Only_Dutch,6,,Part 1 completed,Accuracy_level_0.55,,"<div style=""font-size:60px;"">  </div>",,,,html-keyboard-response,5,25116,0.0-1.0-0.2,,,,,,,
7,1646840384413,09/03/2022 15:39:44,1646840385309,1,09/03/2022 16:39:45,73265,15,task-2gi1,,20237368,BLIND,6003084,Intro Experiment: General explanations,complete,,,computer,Desktop or Laptop,Mac OS 10.14.6,Chrome 98.0.4758.102,1280x800,1244x555,Part 1 completed,Colors_Only_Dutch,6,,Part 1 completed,Accuracy_level_0.55,421.19999998807907,/task/320040/6/asset/pink.png,,,,image-keyboard-response,6,26622,0.0-1.0-1.2,,1,test, ,0.52,1,0.08066666666666666
8,1646840384518,09/03/2022 15:39:44,1646840385414,1,09/03/2022 16:39:45,73265,15,task-2gi1,,20237368,BLIND,6003084,Intro Experiment: General explanations,complete,,,computer,Desktop or Laptop,Mac OS 10.14.6,Chrome 98.0.4758.102,1280x800,1244x555,Part 1 completed,Colors_Only_Dutch,6,,Part 1 completed,Accuracy_level_0.55,,"<div style=""font-size:60px;"">  </div>",,,,html-keyboard-response,7,26726,0.0-1.0-0.3,,,,,,,
9,1646840386023,09/03/2022 15:39:46,1646840386918,1,09/03/2022 16:39:46,73265,15,task-2gi1,,20237368,BLIND,6003084,Intro Experiment: General explanations,complete,,,computer,Desktop or Laptop,Mac OS 10.14.6,Chrome 98.0.4758.102,1280x800,1244x555,Part 1 completed,Colors_Only_Dutch,6,,Part 1 completed,Accuracy_level_0.55,,/task/320040/6/asset/green.png,,,,image-keyboard-response,8,28231,0.0-1.0-1.3,,,test,,0.5571428571428572,1,0.10748333333333333
10,1646840386132,09/03/2022 15:39:46,1646840387022,1,09/03/2022 16:39:47,73265,15,task-2gi1,,20237368,BLIND,6003084,Intro Experiment: General explanations,complete,,,computer,Desktop or Laptop,Mac OS 10.14.6,Chrome 98.0.4758.102,1280x800,1244x555,Part 1 completed,Colors_Only_Dutch,6,,Part 1 completed,Accuracy_level_0.55,,"<div style=""font-size:60px;"">  </div>",,,,html-keyboard-response,9,28335,0.0-1.0-0.4,,,,,,,
11,1646840387622,09/03/2022 15:39:47,1646840388527,1,09/03/2022 16:39:48,73265,15,task-2gi1,,20237368,BLIND,6003084,Intro Experiment: General explanations,complete,,,computer,Desktop or Laptop,Mac OS 10.14.6,Chrome 98.0.4758.102,1280x800,1244x555,Part 1 completed,Colors_Only_Dutch,6,,Part 1 completed,Accuracy_level_0.55,508.80000001192093,/task/320040/6/asset/purple.png,,,,image-keyboard-response,10,29839,0.0-1.0-1.4,,,test,,0.43333333333333335,,0.1343
