Event Index,UTC Timestamp,UTC Date,Local Timestamp,Local Timezone,Local Date,Experiment ID,Experiment Version,Tree Node Key,Repeat Key,Schedule ID,Participant Public ID,Participant Private ID,Participant Starting Group,Participant Status,Participant Completion Code,Participant External Session ID,Participant Device Type,Participant Device,Participant OS,Participant Browser,Participant Monitor Size,Participant Viewport Size,Checkpoint,Task Name,Task Version,checkpoint-yiku,checkpoint-gn26,randomiser-2vg5,Reaction Time,Stimulus,Key Press,Test Part,Correct Response,Trial Type,Trial Index,Time Elapsed,Internal Node ID,Correct,match,phase,correct_resp,prop_correct,accuracy_color_trial,minutes
1,1645127500924,17/02/2022 19:51:40,1645127500844,1,17/02/2022 20:51:40,73265,15,task-nzlp,,19550015,BLIND,5789048,Intro Experiment: General explanations,complete,,,computer,Desktop or Laptop,Mac OS 10.15.7,Safari 15.0,1440x900,1440x862,Part 1 completed,Colors_Only_Dutch,6,,Part 1 completed,Accuracy_level_0.55,15751,,,,,instructions,0,15754,0.0-0.0,,,,,,,
2,1645127501028,17/02/2022 19:51:41,1645127500950,1,17/02/2022 20:51:40,73265,15,task-nzlp,,19550015,BLIND,5789048,Intro Experiment: General explanations,complete,,,computer,Desktop or Laptop,Mac OS 10.15.7,Safari 15.0,1440x900,1440x862,Part 1 completed,Colors_Only_Dutch,6,,Part 1 completed,Accuracy_level_0.55,,"<div style=""font-size:60px;"">  </div>",,,,html-keyboard-response,1,15859,0.0-1.0-0.0,,,,,,,
3,1645127502488,17/02/2022 19:51:42,1645127502455,1,17/02/2022 20:51:42,73265,15,task-nzlp,,19550015,BLIND,5789048,Intro Experiment: General explanations,complete,,,computer,Desktop or Laptop,Mac OS 10.15.7,Safari 15.0,1440x900,1440x862,Part 1 completed,Colors_Only_Dutch,6,,Part 1 completed,Accuracy_level_0.55,,/task/320040/6/asset/pink.png,,,,image-keyboard-response,2,17364,0.0-1.0-1.0,,,test,,1.3,1,0.02685
4,1645127502602,17/02/2022 19:51:42,1645127502560,1,17/02/2022 20:51:42,73265,15,task-nzlp,,19550015,BLIND,5789048,Intro Experiment: General explanations,complete,,,computer,Desktop or Laptop,Mac OS 10.15.7,Safari 15.0,1440x900,1440x862,Part 1 completed,Colors_Only_Dutch,6,,Part 1 completed,Accuracy_level_0.55,,"<div style=""font-size:60px;"">  </div>",,,,html-keyboard-response,3,17470,0.0-1.0-0.1,,,,,,,
5,1645127504123,17/02/2022 19:51:44,1645127504070,1,17/02/2022 20:51:44,73265,15,task-nzlp,,19550015,BLIND,5789048,Intro Experiment: General explanations,complete,,,computer,Desktop or Laptop,Mac OS 10.15.7,Safari 15.0,1440x900,1440x862,Part 1 completed,Colors_Only_Dutch,6,,Part 1 completed,Accuracy_level_0.55,,/task/320040/6/asset/black.png,,,,image-keyboard-response,4,18974,0.0-1.0-1.1,,,test,,0.8666666666666667,1,0.053766666666666664
6,1645127504316,17/02/2022 19:51:44,1645127504174,1,17/02/2022 20:51:44,73265,15,task-nzlp,,19550015,BLIND,5789048,Intro Experiment: General explanations,complete,,,computer,Desktop or Laptop,Mac OS 10.15.7,Safari 15.0,1440x900,1440x862,Part 1 completed,Colors_Only_Dutch,6,,Part 1 completed,Accuracy_level_0.55,,"<div style=""font-size:60px;"">  </div>",,,,html-keyboard-response,5,19084,0.0-1.0-0.2,,,,,,,
7,1645127505734,17/02/2022 19:51:45,1645127505679,1,17/02/2022 20:51:45,73265,15,task-nzlp,,19550015,BLIND,5789048,Intro Experiment: General explanations,complete,,,computer,Desktop or Laptop,Mac OS 10.15.7,Safari 15.0,1440x900,1440x862,Part 1 completed,Colors_Only_Dutch,6,,Part 1 completed,Accuracy_level_0.55,,/task/320040/6/asset/red.png,,,,image-keyboard-response,6,20589,0.0-1.0-1.2,,,test,,0.78,1,0.08058333333333334
8,1645127505816,17/02/2022 19:51:45,1645127505783,1,17/02/2022 20:51:45,73265,15,task-nzlp,,19550015,BLIND,5789048,Intro Experiment: General explanations,complete,,,computer,Desktop or Laptop,Mac OS 10.15.7,Safari 15.0,1440x900,1440x862,Part 1 completed,Colors_Only_Dutch,6,,Part 1 completed,Accuracy_level_0.55,,"<div style=""font-size:60px;"">  </div>",,,,html-keyboard-response,7,20693,0.0-1.0-0.3,,,,,,,
9,1645127507332,17/02/2022 19:51:47,1645127507296,1,17/02/2022 20:51:47,73265,15,task-nzlp,,19550015,BLIND,5789048,Intro Experiment: General explanations,complete,,,computer,Desktop or Laptop,Mac OS 10.15.7,Safari 15.0,1440x900,1440x862,Part 1 completed,Colors_Only_Dutch,6,,Part 1 completed,Accuracy_level_0.55,375,/task/320040/6/asset/red.png,,,,image-keyboard-response,8,22206,0.0-1.0-1.3,,1,test, ,0.7428571428571429,1,0.10753333333333333
10,1645127507441,17/02/2022 19:51:47,1645127507401,1,17/02/2022 20:51:47,73265,15,task-nzlp,,19550015,BLIND,5789048,Intro Experiment: General explanations,complete,,,computer,Desktop or Laptop,Mac OS 10.15.7,Safari 15.0,1440x900,1440x862,Part 1 completed,Colors_Only_Dutch,6,,Part 1 completed,Accuracy_level_0.55,,"<div style=""font-size:60px;"">  </div>",,,,html-keyboard-response,9,22311,0.0-1.0-0.4,,,,,,,
11,1645127508946,17/02/2022 19:51:48,1645127508907,1,17/02/2022 20:51:48,73265,15,task-nzlp,,19550015,BLIND,5789048,Intro Experiment: General explanations,complete,,,computer,Desktop or Laptop,Mac OS 10.15.7,Safari 15.0,1440x900,1440x862,Part 1 completed,Colors_Only_Dutch,6,,Part 1 completed,Accuracy_level_0.55,,/task/320040/6/asset/blue.png,,,,image-keyboard-response,10,23816,0.0-1.0-1.4,,,test,,0.7222222222222222,1,0.13438333333333333
12,1645127509053,17/02/2022 19:51:49,1645127509011,1,17/02/2022 20:51:49,73265,15,task-nzlp,,19550015,BLIND,5789048,Intro Experiment: General explanations,complete,,,computer,Desktop or Laptop,Mac OS 10.15.7,Safari 15.0,1440x900,1440x862,Part 1 completed,Colors_Only_Dutch,6,,Part 1 completed,Accuracy_level_0.55,,"<div style=""font-size:60px;"">  </div>",,,,html-keyboard-response,11,23921,0.0-1.0-0.5,,,,,,,
13,1645127510568,17/02/2022 19:51:50,1645127510524,1,17/02/2022 20:51:50,73265,15,task-nzlp,,19550015,BLIND,5789048,Intro Experiment: General explanations,complete,,,computer,Desktop or Laptop,Mac OS 10.15.7,Safari 15.0,1440x900,1440x862,Part 1 completed,Colors_Only_Dutch,6,,Part 1 completed,Accuracy_level_0.55,435,/task/320040/6/asset/blue.png,,,,image-keyboard-response,12,25434,0.0-1.0-1.5,,1,test, ,0.7090909090909091,1,0.16133333333333333
14,1645127510665,17/02/2022 19:51:50,1645127510629,1,17/02/2022 20:51:50,73265,15,task-nzlp,,19550015,BLIND,5789048,Intro Experiment: General explanations,complete,,,computer,Desktop or Laptop,Mac OS 10.15.7,Safari 15.0,1440x900,1440x862,Part 1 completed,Colors_Only_Dutch,6,,Part 1 completed,Accuracy_level_0.55,,"<div style=""font-size:60px;"">  </div>",,,,html-keyboard-response,13,25539,0.0-1.0-0.6,,,,,,,
15,1645127512180,17/02/2022 19:51:52,1645127512146,1,17/02/2022 20:51:52,73265,15,task-nzlp,,19550015,BLIND,5789048,Intro Experiment: General explanations,complete,,,computer,Desktop or Laptop,Mac OS 10.15.7,Safari 15.0,1440x900,1440x862,Part 1 completed,Colors_Only_Dutch,6,,Part 1 completed,Accuracy_level_0.55,,/task/320040/6/asset/black.png,,,,image-keyboard-response,14,27056,0.0-1.0-1.6,,,test,,0.7,1,0.18836666666666665
16,1645127512290,17/02/2022 19:51:52,1645127512249,1,17/02/2022 20:51:52,73265,15,task-nzlp,,19550015,BLIND,5789048,Intro Experiment: General explanations,complete,,,computer,Desktop or Laptop,Mac OS 10.15.7,Safari 15.0,1440x900,1440x862,Part 1 completed,Colors_Only_Dutch,6,,Part 1 completed,Accuracy_level_0.55,,"<div style=""font-size:60px;"">  </div>",,,,html-keyboard-response,15,27159,0.0-1.0-0.7,,,,,,,
17,1645127513794,17/02/2022 19:51:53,1645127513755,1,17/02/2022 20:51:53,73265,15,task-nzlp,,19550015,BLIND,5789048,Intro Experiment: General explanations,complete,,,computer,Desktop or Laptop,Mac OS 10.15.7,Safari 15.0,1440x900,1440x862,Part 1 completed,Colors_Only_Dutch,6,,Part 1 completed,Accuracy_level_0.55,430,/task/320040/6/asset/black.png,,,,image-keyboard-response,16,28664,0.0-1.0-1.7,,1,test, ,0.6933333333333334,1,0.21518333333333334
1,1647900597675,21/03/2022 22:09:57,1647900594938,1,21/03/2022 23:09:54,73265,15,task-nzlp,,20636050,BLIND,6099386,Intro Experiment: General explanations,complete,,,computer,Desktop or Laptop,Windows 10,Chrome 99.0.4844.51,1536x864,1536x722,Part 1 completed,Colors_Only_Dutch,6,,Part 1 completed,Accuracy_level_0.55,11538.299999952316,,,,,instructions,0,11542,0.0-0.0,,,,,,,
2,1647900597758,21/03/2022 22:09:57,1647900595060,1,21/03/2022 23:09:55,73265,15,task-nzlp,,20636050,BLIND,6099386,Intro Experiment: General explanations,complete,,,computer,Desktop or Laptop,Windows 10,Chrome 99.0.4844.51,1536x864,1536x722,Part 1 completed,Colors_Only_Dutch,6,,Part 1 completed,Accuracy_level_0.55,,"<div style=""font-size:60px;"">  </div>",,,,html-keyboard-response,1,11665,0.0-1.0-0.0,,,,,,,
3,1647900599243,21/03/2022 22:09:59,1647900596566,1,21/03/2022 23:09:56,73265,15,task-nzlp,,20636050,BLIND,6099386,Intro Experiment: General explanations,complete,,,computer,Desktop or Laptop,Windows 10,Chrome 99.0.4844.51,1536x864,1536x722,Part 1 completed,Colors_Only_Dutch,6,,Part 1 completed,Accuracy_level_0.55,,/task/320040/6/asset/white.png,,,,image-keyboard-response,2,13170,0.0-1.0-1.0,,1,test, ,0,,0.02715
4,1647900599331,21/03/2022 22:09:59,1647900596670,1,21/03/2022 23:09:56,73265,15,task-nzlp,,20636050,BLIND,6099386,Intro Experiment: General explanations,complete,,,computer,Desktop or Laptop,Windows 10,Chrome 99.0.4844.51,1536x864,1536x722,Part 1 completed,Colors_Only_Dutch,6,,Part 1 completed,Accuracy_level_0.55,,"<div style=""font-size:60px;"">  </div>",,,,html-keyboard-response,3,13275,0.0-1.0-0.1,,,,,,,
5,1647900600831,21/03/2022 22:10:00,1647900598173,1,21/03/2022 23:09:58,73265,15,task-nzlp,,20636050,BLIND,6099386,Intro Experiment: General explanations,complete,,,computer,Desktop or Laptop,Windows 10,Chrome 99.0.4844.51,1536x864,1536x722,Part 1 completed,Colors_Only_Dutch,6,,Part 1 completed,Accuracy_level_0.55,,/task/320040/6/asset/red.png,,,,image-keyboard-response,4,14777,0.0-1.0-1.1,,,test,,0.43333333333333335,1,0.05393333333333333
6,1647900600930,21/03/2022 22:10:00,1647900598277,1,21/03/2022 23:09:58,73265,15,task-nzlp,,20636050,BLIND,6099386,Intro Experiment: General explanations,complete,,,computer,Desktop or Laptop,Windows 10,Chrome 99.0.4844.51,1536x864,1536x722,Part 1 completed,Colors_Only_Dutch,6,,Part 1 completed,Accuracy_level_0.55,,"<div style=""font-size:60px;"">  </div>",,,,html-keyboard-response,5,14882,0.0-1.0-0.2,,,,,,,
7,1647900602446,21/03/2022 22:10:02,1647900599780,1,21/03/2022 23:09:59,73265,15,task-nzlp,,20636050,BLIND,6099386,Intro Experiment: General explanations,complete,,,computer,Desktop or Laptop,Windows 10,Chrome 99.0.4844.51,1536x864,1536x722,Part 1 completed,Colors_Only_Dutch,6,,Part 1 completed,Accuracy_level_0.55,,/task/320040/6/asset/yellow.png,,,,image-keyboard-response,6,16385,0.0-1.0-1.2,,,test,,0.52,1,0.08071666666666667
8,1647900602695,21/03/2022 22:10:02,1647900599883,1,21/03/2022 23:09:59,73265,15,task-nzlp,,20636050,BLIND,6099386,Intro Experiment: General explanations,complete,,,computer,Desktop or Laptop,Windows 10,Chrome 99.0.4844.51,1536x864,1536x722,Part 1 completed,Colors_Only_Dutch,6,,Part 1 completed,Accuracy_level_0.55,,"<div style=""font-size:60px;"">  </div>",,,,html-keyboard-response,7,16488,0.0-1.0-0.3,,,,,,,
9,1647900604049,21/03/2022 22:10:04,1647900601387,1,21/03/2022 23:10:01,73265,15,task-nzlp,,20636050,BLIND,6099386,Intro Experiment: General explanations,complete,,,computer,Desktop or Laptop,Windows 10,Chrome 99.0.4844.51,1536x864,1536x722,Part 1 completed,Colors_Only_Dutch,6,,Part 1 completed,Accuracy_level_0.55,,/task/320040/6/asset/white.png,,,,image-keyboard-response,8,17992,0.0-1.0-1.3,,,test,,0.5571428571428572,1,0.1075
10,1647900604151,21/03/2022 22:10:04,1647900601490,1,21/03/2022 23:10:01,73265,15,task-nzlp,,20636050,BLIND,6099386,Intro Experiment: General explanations,complete,,,computer,Desktop or Laptop,Windows 10,Chrome 99.0.4844.51,1536x864,1536x722,Part 1 completed,Colors_Only_Dutch,6,,Part 1 completed,Accuracy_level_0.55,,"<div style=""font-size:60px;"">  </div>",,,,html-keyboard-response,9,18095,0.0-1.0-0.4,,,,,,,
11,1647900605645,21/03/2022 22:10:05,1647900602992,1,21/03/2022 23:10:02,73265,15,task-nzlp,,20636050,BLIND,6099386,Intro Experiment: General explanations,complete,,,computer,Desktop or Laptop,Windows 10,Chrome 99.0.4844.51,1536x864,1536x722,Part 1 completed,Colors_Only_Dutch,6,,Part 1 completed,Accuracy_level_0.55,,/task/320040/6/asset/yellow.png,,,,image-keyboard-response,10,19597,0.0-1.0-1.4,,,test,,0.5777777777777778,1,0.13425
12,1647900605760,21/03/2022 22:10:05,1647900603095,1,21/03/2022 23:10:03,73265,15,task-nzlp,,20636050,BLIND,6099386,Intro Experiment: General explanations,complete,,,computer,Desktop or Laptop,Windows 10,Chrome 99.0.4844.51,1536x864,1536x722,Part 1 completed,Colors_Only_Dutch,6,,Part 1 completed,Accuracy_level_0.55,,"<div style=""font-size:60px;"">  </div>",,,,html-keyboard-response,11,19700,0.0-1.0-0.5,,,,,,,
13,1647900607255,21/03/2022 22:10:07,1647900604599,1,21/03/2022 23:10:04,73265,15,task-nzlp,,20636050,BLIND,6099386,Intro Experiment: General explanations,complete,,,computer,Desktop or Laptop,Windows 10,Chrome 99.0.4844.51,1536x864,1536x722,Part 1 completed,Colors_Only_Dutch,6,,Part 1 completed,Accuracy_level_0.55,572.8999999761581,/task/320040/6/asset/yellow.png,,,,image-keyboard-response,12,21204,0.0-1.0-1.5,,1,test, ,0.5909090909090909,1,0.16103333333333333
14,1647900607387,21/03/2022 22:10:07,1647900604702,1,21/03/2022 23:10:04,73265,15,task-nzlp,,20636050,BLIND,6099386,Intro Experiment: General explanations,complete,,,computer,Desktop or Laptop,Windows 10,Chrome 99.0.4844.51,1536x864,1536x722,Part 1 completed,Colors_Only_Dutch,6,,Part 1 completed,Accuracy_level_0.55,,"<div style=""font-size:60px;"">  </div>",,,,html-keyboard-response,13,21307,0.0-1.0-0.6,,,,,,,
15,1647900608870,21/03/2022 22:10:08,1647900606205,1,21/03/2022 23:10:06,73265,15,task-nzlp,,20636050,BLIND,6099386,Intro Experiment: General explanations,complete,,,computer,Desktop or Laptop,Windows 10,Chrome 99.0.4844.51,1536x864,1536x722,Part 1 completed,Colors_Only_Dutch,6,,Part 1 completed,Accuracy_level_0.55,575.5,/task/320040/6/asset/yellow.png,,,,image-keyboard-response,14,22810,0.0-1.0-1.6,,1,test, ,0.6,1,0.1878
16,1647900608971,21/03/2022 22:10:08,1647900606308,1,21/03/2022 23:10:06,73265,15,task-nzlp,,20636050,BLIND,6099386,Intro Experiment: General explanations,complete,,,computer,Desktop or Laptop,Windows 10,Chrome 99.0.4844.51,1536x864,1536x722,Part 1 completed,Colors_Only_Dutch,6,,Part 1 completed,Accuracy_level_0.55,,"<div style=""font-size:60px;"">  </div>",,,,html-keyboard-response,15,22913,0.0-1.0-0.7,,,,,,,
17,1647900610465,21/03/2022 22:10:10,1647900607810,1,21/03/2022 23:10:07,73265,15,task-nzlp,,20636050,BLIND,6099386,Intro Experiment: General explanations,complete,,,computer,Desktop or Laptop,Windows 10,Chrome 99.0.4844.51,1536x864,1536x722,Part 1 completed,Colors_Only_Dutch,6,,Part 1 completed,Accuracy_level_0.55,,/task/320040/6/asset/pink.png,,,,image-keyboard-response,16,24414,0.0-1.0-1.7,,,test,,0.6066666666666667,1,0.21455
1,1647711239137,19/03/2022 17:33:59,1647711238936,1,19/03/2022 18:33:58,73265,15,task-nzlp,,20561730,BLIND,6052332,Intro Experiment: General explanations,complete,,,computer,Desktop or Laptop,Mac OS 10.15.7,Safari 15.1,1440x900,1440x820,Part 1 completed,Colors_Only_Dutch,6,,Part 1 completed,Accuracy_level_0.55,5089,,,,,instructions,0,5091,0.0-0.0,,,,,,,
2,1647711239215,19/03/2022 17:33:59,1647711239041,1,19/03/2022 18:33:59,73265,15,task-nzlp,,20561730,BLIND,6052332,Intro Experiment: General explanations,complete,,,computer,Desktop or Laptop,Mac OS 10.15.7,Safari 15.1,1440x900,1440x820,Part 1 completed,Colors_Only_Dutch,6,,Part 1 completed,Accuracy_level_0.55,,"<div style=""font-size:60px;"">  </div>",,,,html-keyboard-response,1,5196,0.0-1.0-0.0,,,,,,,
3,1647711240685,19/03/2022 17:34:00,1647711240548,1,19/03/2022 18:34:00,73265,15,task-nzlp,,20561730,BLIND,6052332,Intro Experiment: General explanations,complete,,,computer,Desktop or Laptop,Mac OS 10.15.7,Safari 15.1,1440x900,1440x820,Part 1 completed,Colors_Only_Dutch,6,,Part 1 completed,Accuracy_level_0.55,831,/task/320040/6/asset/green.png,,,,image-keyboard-response,2,6702,0.0-1.0-1.0,,,test,,0,,0.026866666666666667
4,1647711240749,19/03/2022 17:34:00,1647711240653,1,19/03/2022 18:34:00,73265,15,task-nzlp,,20561730,BLIND,6052332,Intro Experiment: General explanations,complete,,,computer,Desktop or Laptop,Mac OS 10.15.7,Safari 15.1,1440x900,1440x820,Part 1 completed,Colors_Only_Dutch,6,,Part 1 completed,Accuracy_level_0.55,,"<div style=""font-size:60px;"">  </div>",,,,html-keyboard-response,3,6808,0.0-1.0-0.1,,,,,,,
5,1647711242262,19/03/2022 17:34:02,1647711242159,1,19/03/2022 18:34:02,73265,15,task-nzlp,,20561730,BLIND,6052332,Intro Experiment: General explanations,complete,,,computer,Desktop or Laptop,Mac OS 10.15.7,Safari 15.1,1440x900,1440x820,Part 1 completed,Colors_Only_Dutch,6,,Part 1 completed,Accuracy_level_0.55,,/task/320040/6/asset/white.png,,,,image-keyboard-response,4,8314,0.0-1.0-1.1,,,test,,0.43333333333333335,1,0.05371666666666667
6,1647711242374,19/03/2022 17:34:02,1647711242265,1,19/03/2022 18:34:02,73265,15,task-nzlp,,20561730,BLIND,6052332,Intro Experiment: General explanations,complete,,,computer,Desktop or Laptop,Mac OS 10.15.7,Safari 15.1,1440x900,1440x820,Part 1 completed,Colors_Only_Dutch,6,,Part 1 completed,Accuracy_level_0.55,,"<div style=""font-size:60px;"">  </div>",,,,html-keyboard-response,5,8420,0.0-1.0-0.2,,,,,,,
7,1647711243882,19/03/2022 17:34:03,1647711243784,1,19/03/2022 18:34:03,73265,15,task-nzlp,,20561730,BLIND,6052332,Intro Experiment: General explanations,complete,,,computer,Desktop or Laptop,Mac OS 10.15.7,Safari 15.1,1440x900,1440x820,Part 1 completed,Colors_Only_Dutch,6,,Part 1 completed,Accuracy_level_0.55,430,/task/320040/6/asset/white.png,,,,image-keyboard-response,6,9939,0.0-1.0-1.2,,1,test, ,0.52,1,0.0808
8,1647711244002,19/03/2022 17:34:04,1647711243889,1,19/03/2022 18:34:03,73265,15,task-nzlp,,20561730,BLIND,6052332,Intro Experiment: General explanations,complete,,,computer,Desktop or Laptop,Mac OS 10.15.7,Safari 15.1,1440x900,1440x820,Part 1 completed,Colors_Only_Dutch,6,,Part 1 completed,Accuracy_level_0.55,,"<div style=""font-size:60px;"">  </div>",,,,html-keyboard-response,7,10043,0.0-1.0-0.3,,,,,,,
9,1647711245501,19/03/2022 17:34:05,1647711245395,1,19/03/2022 18:34:05,73265,15,task-nzlp,,20561730,BLIND,6052332,Intro Experiment: General explanations,complete,,,computer,Desktop or Laptop,Mac OS 10.15.7,Safari 15.1,1440x900,1440x820,Part 1 completed,Colors_Only_Dutch,6,,Part 1 completed,Accuracy_level_0.55,386.9999999999982,/task/320040/6/asset/white.png,,,,image-keyboard-response,8,11550,0.0-1.0-1.3,,1,test, ,0.5571428571428572,1,0.10765
10,1647711245600,19/03/2022 17:34:05,1647711245502,1,19/03/2022 18:34:05,73265,15,task-nzlp,,20561730,BLIND,6052332,Intro Experiment: General explanations,complete,,,computer,Desktop or Laptop,Mac OS 10.15.7,Safari 15.1,1440x900,1440x820,Part 1 completed,Colors_Only_Dutch,6,,Part 1 completed,Accuracy_level_0.55,,"<div style=""font-size:60px;"">  </div>",,,,html-keyboard-response,9,11656,0.0-1.0-0.4,,,,,,,
11,1647711247111,19/03/2022 17:34:07,1647711247008,1,19/03/2022 18:34:07,73265,15,task-nzlp,,20561730,BLIND,6052332,Intro Experiment: General explanations,complete,,,computer,Desktop or Laptop,Mac OS 10.15.7,Safari 15.1,1440x900,1440x820,Part 1 completed,Colors_Only_Dutch,6,,Part 1 completed,Accuracy_level_0.55,,/task/320040/6/asset/yellow.png,,,,image-keyboard-response,10,13163,0.0-1.0-1.4,,,test,,0.5777777777777778,1,0.13453333333333334
12,1647711247209,19/03/2022 17:34:07,1647711247114,1,19/03/2022 18:34:07,73265,15,task-nzlp,,20561730,BLIND,6052332,Intro Experiment: General explanations,complete,,,computer,Desktop or Laptop,Mac OS 10.15.7,Safari 15.1,1440x900,1440x820,Part 1 completed,Colors_Only_Dutch,6,,Part 1 completed,Accuracy_level_0.55,,"<div style=""font-size:60px;"">  </div>",,,,html-keyboard-response,11,13269,0.0-1.0-0.5,,,,,,,
13,1647711249172,19/03/2022 17:34:09,1647711248629,1,19/03/2022 18:34:08,73265,15,task-nzlp,,20561730,BLIND,6052332,Intro Experiment: General explanations,complete,,,computer,Desktop or Laptop,Mac OS 10.15.7,Safari 15.1,1440x900,1440x820,Part 1 completed,Colors_Only_Dutch,6,,Part 1 completed,Accuracy_level_0.55,359,/task/320040/6/asset/yellow.png,,,,image-keyboard-response,12,14783,0.0-1.0-1.5,,1,test, ,0.5909090909090909,1,0.16155
14,1647711249344,19/03/2022 17:34:09,1647711248734,1,19/03/2022 18:34:08,73265,15,task-nzlp,,20561730,BLIND,6052332,Intro Experiment: General explanations,complete,,,computer,Desktop or Laptop,Mac OS 10.15.7,Safari 15.1,1440x900,1440x820,Part 1 completed,Colors_Only_Dutch,6,,Part 1 completed,Accuracy_level_0.55,,"<div style=""font-size:60px;"">  </div>",,,,html-keyboard-response,13,14889,0.0-1.0-0.6,,,,,,,
15,1647711250348,19/03/2022 17:34:10,1647711250239,1,19/03/2022 18:34:10,73265,15,task-nzlp,,20561730,BLIND,6052332,Intro Experiment: General explanations,complete,,,computer,Desktop or Laptop,Mac OS 10.15.7,Safari 15.1,1440x900,1440x820,Part 1 completed,Colors_Only_Dutch,6,,Part 1 completed,Accuracy_level_0.55,366.00000000000364,/task/320040/6/asset/yellow.png,,,,image-keyboard-response,14,16393,0.0-1.0-1.6,,1,test, ,0.6,1,0.18838333333333335
16,1647711250437,19/03/2022 17:34:10,1647711250345,1,19/03/2022 18:34:10,73265,15,task-nzlp,,20561730,BLIND,6052332,Intro Experiment: General explanations,complete,,,computer,Desktop or Laptop,Mac OS 10.15.7,Safari 15.1,1440x900,1440x820,Part 1 completed,Colors_Only_Dutch,6,,Part 1 completed,Accuracy_level_0.55,,"<div style=""font-size:60px;"">  </div>",,,,html-keyboard-response,15,16500,0.0-1.0-0.7,,,,,,,
17,1647711251957,19/03/2022 17:34:11,1647711251851,1,19/03/2022 18:34:11,73265,15,task-nzlp,,20561730,BLIND,6052332,Intro Experiment: General explanations,complete,,,computer,Desktop or Laptop,Mac OS 10.15.7,Safari 15.1,1440x900,1440x820,Part 1 completed,Colors_Only_Dutch,6,,Part 1 completed,Accuracy_level_0.55,355,/task/320040/6/asset/yellow.png,,,,image-keyboard-response,16,18005,0.0-1.0-1.7,,1,test, ,0.6066666666666667,1,0.21525
1,1647702397365,19/03/2022 15:06:37,1647702396349,1,19/03/2022 16:06:36,73265,15,task-nzlp,,20558908,BLIND,6077360,Intro Experiment: General explanations,complete,,,computer,Desktop or Laptop,Windows 10,Chrome 99.0.4844.74,1536x864,1536x754,Part 1 completed,Colors_Only_Dutch,6,,Part 1 completed,Accuracy_level_0.55,10006.200000286102,,,,,instructions,0,10012,0.0-0.0,,,,,,,
2,1647702397466,19/03/2022 15:06:37,1647702396460,1,19/03/2022 16:06:36,73265,15,task-nzlp,,20558908,BLIND,6077360,Intro Experiment: General explanations,complete,,,computer,Desktop or Laptop,Windows 10,Chrome 99.0.4844.74,1536x864,1536x754,Part 1 completed,Colors_Only_Dutch,6,,Part 1 completed,Accuracy_level_0.55,,"<div style=""font-size:60px;"">  </div>",,,,html-keyboard-response,1,10124,0.0-1.0-0.0,,,,,,,
3,1647702398942,19/03/2022 15:06:38,1647702397967,1,19/03/2022 16:06:37,73265,15,task-nzlp,,20558908,BLIND,6077360,Intro Experiment: General explanations,complete,,,computer,Desktop or Laptop,Windows 10,Chrome 99.0.4844.74,1536x864,1536x754,Part 1 completed,Colors_Only_Dutch,6,,Part 1 completed,Accuracy_level_0.55,,/task/320040/6/asset/pink.png,,,,image-keyboard-response,2,11631,0.0-1.0-1.0,,,test,,1.3,1,0.026983333333333335
4,1647702399047,19/03/2022 15:06:39,1647702398085,1,19/03/2022 16:06:38,73265,15,task-nzlp,,20558908,BLIND,6077360,Intro Experiment: General explanations,complete,,,computer,Desktop or Laptop,Windows 10,Chrome 99.0.4844.74,1536x864,1536x754,Part 1 completed,Colors_Only_Dutch,6,,Part 1 completed,Accuracy_level_0.55,,"<div style=""font-size:60px;"">  </div>",,,,html-keyboard-response,3,11749,0.0-1.0-0.1,,,,,,,
5,1647702400541,19/03/2022 15:06:40,1647702399602,1,19/03/2022 16:06:39,73265,15,task-nzlp,,20558908,BLIND,6077360,Intro Experiment: General explanations,complete,,,computer,Desktop or Laptop,Windows 10,Chrome 99.0.4844.74,1536x864,1536x754,Part 1 completed,Colors_Only_Dutch,6,,Part 1 completed,Accuracy_level_0.55,355.30000019073486,/task/320040/6/asset/pink.png,,,,image-keyboard-response,4,13266,0.0-1.0-1.1,,1,test, ,0.8666666666666667,1,0.054233333333333335
6,1647702400661,19/03/2022 15:06:40,1647702399713,1,19/03/2022 16:06:39,73265,15,task-nzlp,,20558908,BLIND,6077360,Intro Experiment: General explanations,complete,,,computer,Desktop or Laptop,Windows 10,Chrome 99.0.4844.74,1536x864,1536x754,Part 1 completed,Colors_Only_Dutch,6,,Part 1 completed,Accuracy_level_0.55,,"<div style=""font-size:60px;"">  </div>",,,,html-keyboard-response,5,13377,0.0-1.0-0.2,,,,,,,
7,1647702402168,19/03/2022 15:06:42,1647702401217,1,19/03/2022 16:06:41,73265,15,task-nzlp,,20558908,BLIND,6077360,Intro Experiment: General explanations,complete,,,computer,Desktop or Laptop,Windows 10,Chrome 99.0.4844.74,1536x864,1536x754,Part 1 completed,Colors_Only_Dutch,6,,Part 1 completed,Accuracy_level_0.55,,/task/320040/6/asset/red.png,,,,image-keyboard-response,6,14881,0.0-1.0-1.2,,,test,,0.78,1,0.08115
8,1647702402265,19/03/2022 15:06:42,1647702401324,1,19/03/2022 16:06:41,73265,15,task-nzlp,,20558908,BLIND,6077360,Intro Experiment: General explanations,complete,,,computer,Desktop or Laptop,Windows 10,Chrome 99.0.4844.74,1536x864,1536x754,Part 1 completed,Colors_Only_Dutch,6,,Part 1 completed,Accuracy_level_0.55,,"<div style=""font-size:60px;"">  </div>",,,,html-keyboard-response,7,14988,0.0-1.0-0.3,,,,,,,
9,1647702403814,19/03/2022 15:06:43,1647702402837,1,19/03/2022 16:06:42,73265,15,task-nzlp,,20558908,BLIND,6077360,Intro Experiment: General explanations,complete,,,computer,Desktop or Laptop,Windows 10,Chrome 99.0.4844.74,1536x864,1536x754,Part 1 completed,Colors_Only_Dutch,6,,Part 1 completed,Accuracy_level_0.55,483.7000002861023,/task/320040/6/asset/red.png,,,,image-keyboard-response,8,16501,0.0-1.0-1.3,,1,test, ,0.7428571428571429,1,0.10815
10,1647702403880,19/03/2022 15:06:43,1647702402942,1,19/03/2022 16:06:42,73265,15,task-nzlp,,20558908,BLIND,6077360,Intro Experiment: General explanations,complete,,,computer,Desktop or Laptop,Windows 10,Chrome 99.0.4844.74,1536x864,1536x754,Part 1 completed,Colors_Only_Dutch,6,,Part 1 completed,Accuracy_level_0.55,,"<div style=""font-size:60px;"">  </div>",,,,html-keyboard-response,9,16606,0.0-1.0-0.4,,,,,,,
11,1647702405401,19/03/2022 15:06:45,1647702404457,1,19/03/2022 16:06:44,73265,15,task-nzlp,,20558908,BLIND,6077360,Intro Experiment: General explanations,complete,,,computer,Desktop or Laptop,Windows 10,Chrome 99.0.4844.74,1536x864,1536x754,Part 1 completed,Colors_Only_Dutch,6,,Part 1 completed,Accuracy_level_0.55,325.90000009536743,/task/320040/6/asset/red.png,,,,image-keyboard-response,10,18121,0.0-1.0-1.4,,1,test, ,0.7222222222222222,1,0.13515
12,1647702405524,19/03/2022 15:06:45,1647702404572,1,19/03/2022 16:06:44,73265,15,task-nzlp,,20558908,BLIND,6077360,Intro Experiment: General explanations,complete,,,computer,Desktop or Laptop,Windows 10,Chrome 99.0.4844.74,1536x864,1536x754,Part 1 completed,Colors_Only_Dutch,6,,Part 1 completed,Accuracy_level_0.55,,"<div style=""font-size:60px;"">  </div>",,,,html-keyboard-response,11,18236,0.0-1.0-0.5,,,,,,,
13,1647702407026,19/03/2022 15:06:47,1647702406087,1,19/03/2022 16:06:46,73265,15,task-nzlp,,20558908,BLIND,6077360,Intro Experiment: General explanations,complete,,,computer,Desktop or Laptop,Windows 10,Chrome 99.0.4844.74,1536x864,1536x754,Part 1 completed,Colors_Only_Dutch,6,,Part 1 completed,Accuracy_level_0.55,364.2000002861023,/task/320040/6/asset/red.png,,,,image-keyboard-response,12,19751,0.0-1.0-1.5,,1,test, ,0.7090909090909091,1,0.16231666666666666
14,1647702407136,19/03/2022 15:06:47,1647702406195,1,19/03/2022 16:06:46,73265,15,task-nzlp,,20558908,BLIND,6077360,Intro Experiment: General explanations,complete,,,computer,Desktop or Laptop,Windows 10,Chrome 99.0.4844.74,1536x864,1536x754,Part 1 completed,Colors_Only_Dutch,6,,Part 1 completed,Accuracy_level_0.55,,"<div style=""font-size:60px;"">  </div>",,,,html-keyboard-response,13,19859,0.0-1.0-0.6,,,,,,,
15,1647702408674,19/03/2022 15:06:48,1647702407713,1,19/03/2022 16:06:47,73265,15,task-nzlp,,20558908,BLIND,6077360,Intro Experiment: General explanations,complete,,,computer,Desktop or Laptop,Windows 10,Chrome 99.0.4844.74,1536x864,1536x754,Part 1 completed,Colors_Only_Dutch,6,,Part 1 completed,Accuracy_level_0.55,,/task/320040/6/asset/blue.png,,,,image-keyboard-response,14,21377,0.0-1.0-1.6,,,test,,0.7,1,0.18941666666666668
16,1647702408768,19/03/2022 15:06:48,1647702407825,1,19/03/2022 16:06:47,73265,15,task-nzlp,,20558908,BLIND,6077360,Intro Experiment: General explanations,complete,,,computer,Desktop or Laptop,Windows 10,Chrome 99.0.4844.74,1536x864,1536x754,Part 1 completed,Colors_Only_Dutch,6,,Part 1 completed,Accuracy_level_0.55,,"<div style=""font-size:60px;"">  </div>",,,,html-keyboard-response,15,21489,0.0-1.0-0.7,,,,,,,
17,1647702410272,19/03/2022 15:06:50,1647702409330,1,19/03/2022 16:06:49,73265,15,task-nzlp,,20558908,BLIND,6077360,Intro Experiment: General explanations,complete,,,computer,Desktop or Laptop,Windows 10,Chrome 99.0.4844.74,1536x864,1536x754,Part 1 completed,Colors_Only_Dutch,6,,Part 1 completed,Accuracy_level_0.55,287.5,/task/320040/6/asset/blue.png,,,,image-keyboard-response,16,22993,0.0-1.0-1.7,,1,test, ,0.6933333333333334,1,0.21636666666666668
1,1647358527214,15/03/2022 15:35:27,1647358530001,1,15/03/2022 16:35:30,73265,15,task-nzlp,,20408995,BLIND,6003084,Intro Experiment: General explanations,complete,,,computer,Desktop or Laptop,Mac OS 10.14.6,Chrome 99.0.4844.51,1280x800,1244x612,Part 1 completed,Colors_Only_Dutch,6,,Part 1 completed,Accuracy_level_0.55,11108.79999999702,,,,,instructions,0,11114,0.0-0.0,,,,,,,
2,1647358527271,15/03/2022 15:35:27,1647358530117,1,15/03/2022 16:35:30,73265,15,task-nzlp,,20408995,BLIND,6003084,Intro Experiment: General explanations,complete,,,computer,Desktop or Laptop,Mac OS 10.14.6,Chrome 99.0.4844.51,1280x800,1244x612,Part 1 completed,Colors_Only_Dutch,6,,Part 1 completed,Accuracy_level_0.55,,"<div style=""font-size:60px;"">  </div>",,,,html-keyboard-response,1,11230,0.0-1.0-0.0,,,,,,,
3,1647358528771,15/03/2022 15:35:28,1647358531624,1,15/03/2022 16:35:31,73265,15,task-nzlp,,20408995,BLIND,6003084,Intro Experiment: General explanations,complete,,,computer,Desktop or Laptop,Mac OS 10.14.6,Chrome 99.0.4844.51,1280x800,1244x612,Part 1 completed,Colors_Only_Dutch,6,,Part 1 completed,Accuracy_level_0.55,,/task/320040/6/asset/white.png,,,,image-keyboard-response,2,12736,0.0-1.0-1.0,,,test,,1.3,1,0.02705
4,1647358528878,15/03/2022 15:35:28,1647358531727,1,15/03/2022 16:35:31,73265,15,task-nzlp,,20408995,BLIND,6003084,Intro Experiment: General explanations,complete,,,computer,Desktop or Laptop,Mac OS 10.14.6,Chrome 99.0.4844.51,1280x800,1244x612,Part 1 completed,Colors_Only_Dutch,6,,Part 1 completed,Accuracy_level_0.55,,"<div style=""font-size:60px;"">  </div>",,,,html-keyboard-response,3,12840,0.0-1.0-0.1,,,,,,,
5,1647358530396,15/03/2022 15:35:30,1647358533234,1,15/03/2022 16:35:33,73265,15,task-nzlp,,20408995,BLIND,6003084,Intro Experiment: General explanations,complete,,,computer,Desktop or Laptop,Mac OS 10.14.6,Chrome 99.0.4844.51,1280x800,1244x612,Part 1 completed,Colors_Only_Dutch,6,,Part 1 completed,Accuracy_level_0.55,346.40000000596046,/task/320040/6/asset/white.png,,,,image-keyboard-response,4,14347,0.0-1.0-1.1,,1,test, ,0.8666666666666667,1,0.05388333333333333
6,1647358530492,15/03/2022 15:35:30,1647358533337,1,15/03/2022 16:35:33,73265,15,task-nzlp,,20408995,BLIND,6003084,Intro Experiment: General explanations,complete,,,computer,Desktop or Laptop,Mac OS 10.14.6,Chrome 99.0.4844.51,1280x800,1244x612,Part 1 completed,Colors_Only_Dutch,6,,Part 1 completed,Accuracy_level_0.55,,"<div style=""font-size:60px;"">  </div>",,,,html-keyboard-response,5,14450,0.0-1.0-0.2,,,,,,,
7,1647358531990,15/03/2022 15:35:31,1647358534840,1,15/03/2022 16:35:34,73265,15,task-nzlp,,20408995,BLIND,6003084,Intro Experiment: General explanations,complete,,,computer,Desktop or Laptop,Mac OS 10.14.6,Chrome 99.0.4844.51,1280x800,1244x612,Part 1 completed,Colors_Only_Dutch,6,,Part 1 completed,Accuracy_level_0.55,377.79999999701977,/task/320040/6/asset/white.png,,,,image-keyboard-response,6,15952,0.0-1.0-1.2,,1,test, ,0.78,1,0.08065
8,1647358532084,15/03/2022 15:35:32,1647358534942,1,15/03/2022 16:35:34,73265,15,task-nzlp,,20408995,BLIND,6003084,Intro Experiment: General explanations,complete,,,computer,Desktop or Laptop,Mac OS 10.14.6,Chrome 99.0.4844.51,1280x800,1244x612,Part 1 completed,Colors_Only_Dutch,6,,Part 1 completed,Accuracy_level_0.55,,"<div style=""font-size:60px;"">  </div>",,,,html-keyboard-response,7,16055,0.0-1.0-0.3,,,,,,,
9,1647358533595,15/03/2022 15:35:33,1647358536445,1,15/03/2022 16:35:36,73265,15,task-nzlp,,20408995,BLIND,6003084,Intro Experiment: General explanations,complete,,,computer,Desktop or Laptop,Mac OS 10.14.6,Chrome 99.0.4844.51,1280x800,1244x612,Part 1 completed,Colors_Only_Dutch,6,,Part 1 completed,Accuracy_level_0.55,353.5,/task/320040/6/asset/white.png,,,,image-keyboard-response,8,17558,0.0-1.0-1.3,,1,test, ,0.7428571428571429,1,0.1074
10,1647358533688,15/03/2022 15:35:33,1647358536548,1,15/03/2022 16:35:36,73265,15,task-nzlp,,20408995,BLIND,6003084,Intro Experiment: General explanations,complete,,,computer,Desktop or Laptop,Mac OS 10.14.6,Chrome 99.0.4844.51,1280x800,1244x612,Part 1 completed,Colors_Only_Dutch,6,,Part 1 completed,Accuracy_level_0.55,,"<div style=""font-size:60px;"">  </div>",,,,html-keyboard-response,9,17661,0.0-1.0-0.4,,,,,,,
11,1647358535210,15/03/2022 15:35:35,1647358538056,1,15/03/2022 16:35:38,73265,15,task-nzlp,,20408995,BLIND,6003084,Intro Experiment: General explanations,complete,,,computer,Desktop or Laptop,Mac OS 10.14.6,Chrome 99.0.4844.51,1280x800,1244x612,Part 1 completed,Colors_Only_Dutch,6,,Part 1 completed,Accuracy_level_0.55,361.40000000596046,/task/320040/6/asset/white.png,,,,image-keyboard-response,10,19169,0.0-1.0-1.4,,1,test, ,0.7222222222222222,1,0.13425
12,1647358535298,15/03/2022 15:35:35,1647358538160,1,15/03/2022 16:35:38,73265,15,task-nzlp,,20408995,BLIND,6003084,Intro Experiment: General explanations,complete,,,computer,Desktop or Laptop,Mac OS 10.14.6,Chrome 99.0.4844.51,1280x800,1244x612,Part 1 completed,Colors_Only_Dutch,6,,Part 1 completed,Accuracy_level_0.55,,"<div style=""font-size:60px;"">  </div>",,,,html-keyboard-response,11,19273,0.0-1.0-0.5,,,,,,,
13,1647358536824,15/03/2022 15:35:36,1647358539666,1,15/03/2022 16:35:39,73265,15,task-nzlp,,20408995,BLIND,6003084,Intro Experiment: General explanations,complete,,,computer,Desktop or Laptop,Mac OS 10.14.6,Chrome 99.0.4844.51,1280x800,1244x612,Part 1 completed,Colors_Only_Dutch,6,,Part 1 completed,Accuracy_level_0.55,376.59999999403954,/task/320040/6/asset/white.png,,,,image-keyboard-response,12,20779,0.0-1.0-1.5,,1,test, ,0.7090909090909091,1,0.16108333333333333
14,1647358536918,15/03/2022 15:35:36,1647358539768,1,15/03/2022 16:35:39,73265,15,task-nzlp,,20408995,BLIND,6003084,Intro Experiment: General explanations,complete,,,computer,Desktop or Laptop,Mac OS 10.14.6,Chrome 99.0.4844.51,1280x800,1244x612,Part 1 completed,Colors_Only_Dutch,6,,Part 1 completed,Accuracy_level_0.55,,"<div style=""font-size:60px;"">  </div>",,,,html-keyboard-response,13,20881,0.0-1.0-0.6,,,,,,,
15,1647358538423,15/03/2022 15:35:38,1647358541272,1,15/03/2022 16:35:41,73265,15,task-nzlp,,20408995,BLIND,6003084,Intro Experiment: General explanations,complete,,,computer,Desktop or Laptop,Mac OS 10.14.6,Chrome 99.0.4844.51,1280x800,1244x612,Part 1 completed,Colors_Only_Dutch,6,,Part 1 completed,Accuracy_level_0.55,370.29999999701977,/task/320040/6/asset/white.png,,,,image-keyboard-response,14,22385,0.0-1.0-1.6,,1,test, ,0.7,1,0.18785
16,1647358538521,15/03/2022 15:35:38,1647358541374,1,15/03/2022 16:35:41,73265,15,task-nzlp,,20408995,BLIND,6003084,Intro Experiment: General explanations,complete,,,computer,Desktop or Laptop,Mac OS 10.14.6,Chrome 99.0.4844.51,1280x800,1244x612,Part 1 completed,Colors_Only_Dutch,6,,Part 1 completed,Accuracy_level_0.55,,"<div style=""font-size:60px;"">  </div>",,,,html-keyboard-response,15,22487,0.0-1.0-0.7,,,,,,,
17,1647358540036,15/03/2022 15:35:40,1647358542877,1,15/03/2022 16:35:42,73265,15,task-nzlp,,20408995,BLIND,6003084,Intro Experiment: General explanations,complete,,,computer,Desktop or Laptop,Mac OS 10.14.6,Chrome 99.0.4844.51,1280x800,1244x612,Part 1 completed,Colors_Only_Dutch,6,,Part 1 completed,Accuracy_level_0.55,,/task/320040/6/asset/red.png,,,,image-keyboard-response,16,23990,0.0-1.0-1.7,,,test,,0.6933333333333334,1,0.2146
1,1647349720934,15/03/2022 13:08:40,1647349720779,1,15/03/2022 14:08:40,73265,15,task-nzlp,,20402051,BLIND,5973170,Intro Experiment: General explanations,complete,,,computer,Desktop or Laptop,Mac OS 10.15.7,Chrome 99.0.4844.51,1440x900,1440x789,Part 1 completed,Colors_Only_Dutch,6,,Part 1 completed,Accuracy_level_0.55,22340.80000000028,,,,,instructions,0,22345,0.0-0.0,,,,,,,
2,1647349721012,15/03/2022 13:08:41,1647349720906,1,15/03/2022 14:08:40,73265,15,task-nzlp,,20402051,BLIND,5973170,Intro Experiment: General explanations,complete,,,computer,Desktop or Laptop,Mac OS 10.15.7,Chrome 99.0.4844.51,1440x900,1440x789,Part 1 completed,Colors_Only_Dutch,6,,Part 1 completed,Accuracy_level_0.55,,"<div style=""font-size:60px;"">  </div>",,,,html-keyboard-response,1,22474,0.0-1.0-0.0,,,,,,,
3,1647349722507,15/03/2022 13:08:42,1647349722416,1,15/03/2022 14:08:42,73265,15,task-nzlp,,20402051,BLIND,5973170,Intro Experiment: General explanations,complete,,,computer,Desktop or Laptop,Mac OS 10.15.7,Chrome 99.0.4844.51,1440x900,1440x789,Part 1 completed,Colors_Only_Dutch,6,,Part 1 completed,Accuracy_level_0.55,1214.8000000002794,/task/320040/6/asset/red.png,,,,image-keyboard-response,2,23983,0.0-1.0-1.0,,,test,,0,,0.0273
4,1647349722591,15/03/2022 13:08:42,1647349722520,1,15/03/2022 14:08:42,73265,15,task-nzlp,,20402051,BLIND,5973170,Intro Experiment: General explanations,complete,,,computer,Desktop or Laptop,Mac OS 10.15.7,Chrome 99.0.4844.51,1440x900,1440x789,Part 1 completed,Colors_Only_Dutch,6,,Part 1 completed,Accuracy_level_0.55,,"<div style=""font-size:60px;"">  </div>",,,,html-keyboard-response,3,24088,0.0-1.0-0.1,,,,,,,
5,1647349724097,15/03/2022 13:08:44,1647349724025,1,15/03/2022 14:08:44,73265,15,task-nzlp,,20402051,BLIND,5973170,Intro Experiment: General explanations,complete,,,computer,Desktop or Laptop,Mac OS 10.15.7,Chrome 99.0.4844.51,1440x900,1440x789,Part 1 completed,Colors_Only_Dutch,6,,Part 1 completed,Accuracy_level_0.55,,/task/320040/6/asset/yellow.png,,,,image-keyboard-response,4,25593,0.0-1.0-1.1,,,test,,0.43333333333333335,1,0.05411666666666667
6,1647349724196,15/03/2022 13:08:44,1647349724129,1,15/03/2022 14:08:44,73265,15,task-nzlp,,20402051,BLIND,5973170,Intro Experiment: General explanations,complete,,,computer,Desktop or Laptop,Mac OS 10.15.7,Chrome 99.0.4844.51,1440x900,1440x789,Part 1 completed,Colors_Only_Dutch,6,,Part 1 completed,Accuracy_level_0.55,,"<div style=""font-size:60px;"">  </div>",,,,html-keyboard-response,5,25697,0.0-1.0-0.2,,,,,,,
7,1647349725707,15/03/2022 13:08:45,1647349725636,1,15/03/2022 14:08:45,73265,15,task-nzlp,,20402051,BLIND,5973170,Intro Experiment: General explanations,complete,,,computer,Desktop or Laptop,Mac OS 10.15.7,Chrome 99.0.4844.51,1440x900,1440x789,Part 1 completed,Colors_Only_Dutch,6,,Part 1 completed,Accuracy_level_0.55,557.9000000003725,/task/320040/6/asset/yellow.png,,,,image-keyboard-response,6,27204,0.0-1.0-1.2,,1,test, ,0.52,1,0.08096666666666667
8,1647349725822,15/03/2022 13:08:45,1647349725740,1,15/03/2022 14:08:45,73265,15,task-nzlp,,20402051,BLIND,5973170,Intro Experiment: General explanations,complete,,,computer,Desktop or Laptop,Mac OS 10.15.7,Chrome 99.0.4844.51,1440x900,1440x789,Part 1 completed,Colors_Only_Dutch,6,,Part 1 completed,Accuracy_level_0.55,,"<div style=""font-size:60px;"">  </div>",,,,html-keyboard-response,7,27308,0.0-1.0-0.3,,,,,,,
9,1647349727350,15/03/2022 13:08:47,1647349727247,1,15/03/2022 14:08:47,73265,15,task-nzlp,,20402051,BLIND,5973170,Intro Experiment: General explanations,complete,,,computer,Desktop or Laptop,Mac OS 10.15.7,Chrome 99.0.4844.51,1440x900,1440x789,Part 1 completed,Colors_Only_Dutch,6,,Part 1 completed,Accuracy_level_0.55,631.5,/task/320040/6/asset/yellow.png,,,,image-keyboard-response,8,28814,0.0-1.0-1.3,,1,test, ,0.5571428571428572,1,0.10781666666666667
10,1647349727431,15/03/2022 13:08:47,1647349727351,1,15/03/2022 14:08:47,73265,15,task-nzlp,,20402051,BLIND,5973170,Intro Experiment: General explanations,complete,,,computer,Desktop or Laptop,Mac OS 10.15.7,Chrome 99.0.4844.51,1440x900,1440x789,Part 1 completed,Colors_Only_Dutch,6,,Part 1 completed,Accuracy_level_0.55,,"<div style=""font-size:60px;"">  </div>",,,,html-keyboard-response,9,28919,0.0-1.0-0.4,,,,,,,
11,1647349728948,15/03/2022 13:08:48,1647349728858,1,15/03/2022 14:08:48,73265,15,task-nzlp,,20402051,BLIND,5973170,Intro Experiment: General explanations,complete,,,computer,Desktop or Laptop,Mac OS 10.15.7,Chrome 99.0.4844.51,1440x900,1440x789,Part 1 completed,Colors_Only_Dutch,6,,Part 1 completed,Accuracy_level_0.55,574.5,/task/320040/6/asset/yellow.png,,,,image-keyboard-response,10,30426,0.0-1.0-1.4,,1,test, ,0.5777777777777778,1,0.13466666666666666
12,1647349729034,15/03/2022 13:08:49,1647349728962,1,15/03/2022 14:08:48,73265,15,task-nzlp,,20402051,BLIND,5973170,Intro Experiment: General explanations,complete,,,computer,Desktop or Laptop,Mac OS 10.15.7,Chrome 99.0.4844.51,1440x900,1440x789,Part 1 completed,Colors_Only_Dutch,6,,Part 1 completed,Accuracy_level_0.55,,"<div style=""font-size:60px;"">  </div>",,,,html-keyboard-response,11,30530,0.0-1.0-0.5,,,,,,,
13,1647349730554,15/03/2022 13:08:50,1647349730470,1,15/03/2022 14:08:50,73265,15,task-nzlp,,20402051,BLIND,5973170,Intro Experiment: General explanations,complete,,,computer,Desktop or Laptop,Mac OS 10.15.7,Chrome 99.0.4844.51,1440x900,1440x789,Part 1 completed,Colors_Only_Dutch,6,,Part 1 completed,Accuracy_level_0.55,761.1000000000931,/task/320040/6/asset/yellow.png,,,,image-keyboard-response,12,32037,0.0-1.0-1.5,,1,test, ,0.5909090909090909,1,0.16153333333333333
14,1647349730658,15/03/2022 13:08:50,1647349730575,1,15/03/2022 14:08:50,73265,15,task-nzlp,,20402051,BLIND,5973170,Intro Experiment: General explanations,complete,,,computer,Desktop or Laptop,Mac OS 10.15.7,Chrome 99.0.4844.51,1440x900,1440x789,Part 1 completed,Colors_Only_Dutch,6,,Part 1 completed,Accuracy_level_0.55,,"<div style=""font-size:60px;"">  </div>",,,,html-keyboard-response,13,32143,0.0-1.0-0.6,,,,,,,
15,1647349732149,15/03/2022 13:08:52,1647349732079,1,15/03/2022 14:08:52,73265,15,task-nzlp,,20402051,BLIND,5973170,Intro Experiment: General explanations,complete,,,computer,Desktop or Laptop,Mac OS 10.15.7,Chrome 99.0.4844.51,1440x900,1440x789,Part 1 completed,Colors_Only_Dutch,6,,Part 1 completed,Accuracy_level_0.55,519.3999999999069,/task/320040/6/asset/yellow.png,,,,image-keyboard-response,14,33647,0.0-1.0-1.6,,1,test, ,0.6,1,0.18835
16,1647349732252,15/03/2022 13:08:52,1647349732183,1,15/03/2022 14:08:52,73265,15,task-nzlp,,20402051,BLIND,5973170,Intro Experiment: General explanations,complete,,,computer,Desktop or Laptop,Mac OS 10.15.7,Chrome 99.0.4844.51,1440x900,1440x789,Part 1 completed,Colors_Only_Dutch,6,,Part 1 completed,Accuracy_level_0.55,,"<div style=""font-size:60px;"">  </div>",,,,html-keyboard-response,15,33751,0.0-1.0-0.7,,,,,,,
17,1647349733775,15/03/2022 13:08:53,1647349733687,1,15/03/2022 14:08:53,73265,15,task-nzlp,,20402051,BLIND,5973170,Intro Experiment: General explanations,complete,,,computer,Desktop or Laptop,Mac OS 10.15.7,Chrome 99.0.4844.51,1440x900,1440x789,Part 1 completed,Colors_Only_Dutch,6,,Part 1 completed,Accuracy_level_0.55,742.8999999999069,/task/320040/6/asset/yellow.png,,,,image-keyboard-response,16,35254,0.0-1.0-1.7,,1,test, ,0.6066666666666667,1,0.21515
1,1647346141833,15/03/2022 12:09:01,1647346141630,1,15/03/2022 13:09:01,73265,15,task-nzlp,,20399748,BLIND,6038054,Intro Experiment: General explanations,complete,,,computer,Desktop or Laptop,Mac OS 10.15.7,Chrome 99.0.4844.51,1440x900,1440x789,Part 1 completed,Colors_Only_Dutch,6,,Part 1 completed,Accuracy_level_0.55,3228.899999976158,,,,,instructions,0,3235,0.0-0.0,,,,,,,
2,1647346141896,15/03/2022 12:09:01,1647346141738,1,15/03/2022 13:09:01,73265,15,task-nzlp,,20399748,BLIND,6038054,Intro Experiment: General explanations,complete,,,computer,Desktop or Laptop,Mac OS 10.15.7,Chrome 99.0.4844.51,1440x900,1440x789,Part 1 completed,Colors_Only_Dutch,6,,Part 1 completed,Accuracy_level_0.55,,"<div style=""font-size:60px;"">  </div>",,,,html-keyboard-response,1,3344,0.0-1.0-0.0,,,,,,,
3,1647346143364,15/03/2022 12:09:03,1647346143244,1,15/03/2022 13:09:03,73265,15,task-nzlp,,20399748,BLIND,6038054,Intro Experiment: General explanations,complete,,,computer,Desktop or Laptop,Mac OS 10.15.7,Chrome 99.0.4844.51,1440x900,1440x789,Part 1 completed,Colors_Only_Dutch,6,,Part 1 completed,Accuracy_level_0.55,,/task/320040/6/asset/yellow.png,,,,image-keyboard-response,2,4849,0.0-1.0-1.0,,1,test, ,0,,0.026916666666666665
4,1647346143477,15/03/2022 12:09:03,1647346143349,1,15/03/2022 13:09:03,73265,15,task-nzlp,,20399748,BLIND,6038054,Intro Experiment: General explanations,complete,,,computer,Desktop or Laptop,Mac OS 10.15.7,Chrome 99.0.4844.51,1440x900,1440x789,Part 1 completed,Colors_Only_Dutch,6,,Part 1 completed,Accuracy_level_0.55,,"<div style=""font-size:60px;"">  </div>",,,,html-keyboard-response,3,4954,0.0-1.0-0.1,,,,,,,
5,1647346144976,15/03/2022 12:09:04,1647346144859,1,15/03/2022 13:09:04,73265,15,task-nzlp,,20399748,BLIND,6038054,Intro Experiment: General explanations,complete,,,computer,Desktop or Laptop,Mac OS 10.15.7,Chrome 99.0.4844.51,1440x900,1440x789,Part 1 completed,Colors_Only_Dutch,6,,Part 1 completed,Accuracy_level_0.55,676,/task/320040/6/asset/yellow.png,,,,image-keyboard-response,4,6464,0.0-1.0-1.1,,1,test, ,0.43333333333333335,1,0.05383333333333333
6,1647346145092,15/03/2022 12:09:05,1647346144962,1,15/03/2022 13:09:04,73265,15,task-nzlp,,20399748,BLIND,6038054,Intro Experiment: General explanations,complete,,,computer,Desktop or Laptop,Mac OS 10.15.7,Chrome 99.0.4844.51,1440x900,1440x789,Part 1 completed,Colors_Only_Dutch,6,,Part 1 completed,Accuracy_level_0.55,,"<div style=""font-size:60px;"">  </div>",,,,html-keyboard-response,5,6568,0.0-1.0-0.2,,,,,,,
7,1647346146593,15/03/2022 12:09:06,1647346146469,1,15/03/2022 13:09:06,73265,15,task-nzlp,,20399748,BLIND,6038054,Intro Experiment: General explanations,complete,,,computer,Desktop or Laptop,Mac OS 10.15.7,Chrome 99.0.4844.51,1440x900,1440x789,Part 1 completed,Colors_Only_Dutch,6,,Part 1 completed,Accuracy_level_0.55,539.1000000238419,/task/320040/6/asset/yellow.png,,,,image-keyboard-response,6,8075,0.0-1.0-1.2,,1,test, ,0.52,1,0.08066666666666666
8,1647346146705,15/03/2022 12:09:06,1647346146576,1,15/03/2022 13:09:06,73265,15,task-nzlp,,20399748,BLIND,6038054,Intro Experiment: General explanations,complete,,,computer,Desktop or Laptop,Mac OS 10.15.7,Chrome 99.0.4844.51,1440x900,1440x789,Part 1 completed,Colors_Only_Dutch,6,,Part 1 completed,Accuracy_level_0.55,,"<div style=""font-size:60px;"">  </div>",,,,html-keyboard-response,7,8181,0.0-1.0-0.3,,,,,,,
9,1647346148537,15/03/2022 12:09:08,1647346148085,1,15/03/2022 13:09:08,73265,15,task-nzlp,,20399748,BLIND,6038054,Intro Experiment: General explanations,complete,,,computer,Desktop or Laptop,Mac OS 10.15.7,Chrome 99.0.4844.51,1440x900,1440x789,Part 1 completed,Colors_Only_Dutch,6,,Part 1 completed,Accuracy_level_0.55,446.5,/task/320040/6/asset/yellow.png,,,,image-keyboard-response,8,9691,0.0-1.0-1.3,,1,test, ,0.5571428571428572,1,0.1076
10,1647346148593,15/03/2022 12:09:08,1647346148189,1,15/03/2022 13:09:08,73265,15,task-nzlp,,20399748,BLIND,6038054,Intro Experiment: General explanations,complete,,,computer,Desktop or Laptop,Mac OS 10.15.7,Chrome 99.0.4844.51,1440x900,1440x789,Part 1 completed,Colors_Only_Dutch,6,,Part 1 completed,Accuracy_level_0.55,,"<div style=""font-size:60px;"">  </div>",,,,html-keyboard-response,9,9795,0.0-1.0-0.4,,,,,,,
11,1647346149823,15/03/2022 12:09:09,1647346149696,1,15/03/2022 13:09:09,73265,15,task-nzlp,,20399748,BLIND,6038054,Intro Experiment: General explanations,complete,,,computer,Desktop or Laptop,Mac OS 10.15.7,Chrome 99.0.4844.51,1440x900,1440x789,Part 1 completed,Colors_Only_Dutch,6,,Part 1 completed,Accuracy_level_0.55,,/task/320040/6/asset/white.png,,,,image-keyboard-response,10,11301,0.0-1.0-1.4,,,test,,0.5777777777777778,1,0.13445
12,1647346149921,15/03/2022 12:09:09,1647346149800,1,15/03/2022 13:09:09,73265,15,task-nzlp,,20399748,BLIND,6038054,Intro Experiment: General explanations,complete,,,computer,Desktop or Laptop,Mac OS 10.15.7,Chrome 99.0.4844.51,1440x900,1440x789,Part 1 completed,Colors_Only_Dutch,6,,Part 1 completed,Accuracy_level_0.55,,"<div style=""font-size:60px;"">  </div>",,,,html-keyboard-response,11,11406,0.0-1.0-0.5,,,,,,,
13,1647346151433,15/03/2022 12:09:11,1647346151305,1,15/03/2022 13:09:11,73265,15,task-nzlp,,20399748,BLIND,6038054,Intro Experiment: General explanations,complete,,,computer,Desktop or Laptop,Mac OS 10.15.7,Chrome 99.0.4844.51,1440x900,1440x789,Part 1 completed,Colors_Only_Dutch,6,,Part 1 completed,Accuracy_level_0.55,,/task/320040/6/asset/black.png,,,,image-keyboard-response,12,12911,0.0-1.0-1.5,,,test,,0.5909090909090909,1,0.16126666666666667
14,1647346151532,15/03/2022 12:09:11,1647346151409,1,15/03/2022 13:09:11,73265,15,task-nzlp,,20399748,BLIND,6038054,Intro Experiment: General explanations,complete,,,computer,Desktop or Laptop,Mac OS 10.15.7,Chrome 99.0.4844.51,1440x900,1440x789,Part 1 completed,Colors_Only_Dutch,6,,Part 1 completed,Accuracy_level_0.55,,"<div style=""font-size:60px;"">  </div>",,,,html-keyboard-response,13,13015,0.0-1.0-0.6,,,,,,,
15,1647346153042,15/03/2022 12:09:13,1647346152917,1,15/03/2022 13:09:12,73265,15,task-nzlp,,20399748,BLIND,6038054,Intro Experiment: General explanations,complete,,,computer,Desktop or Laptop,Mac OS 10.15.7,Chrome 99.0.4844.51,1440x900,1440x789,Part 1 completed,Colors_Only_Dutch,6,,Part 1 completed,Accuracy_level_0.55,468.5,/task/320040/6/asset/black.png,,,,image-keyboard-response,14,14522,0.0-1.0-1.6,,1,test, ,0.6,1,0.18813333333333335
16,1647346153142,15/03/2022 12:09:13,1647346153023,1,15/03/2022 13:09:13,73265,15,task-nzlp,,20399748,BLIND,6038054,Intro Experiment: General explanations,complete,,,computer,Desktop or Laptop,Mac OS 10.15.7,Chrome 99.0.4844.51,1440x900,1440x789,Part 1 completed,Colors_Only_Dutch,6,,Part 1 completed,Accuracy_level_0.55,,"<div style=""font-size:60px;"">  </div>",,,,html-keyboard-response,15,14629,0.0-1.0-0.7,,,,,,,
17,1647346154657,15/03/2022 12:09:14,1647346154527,1,15/03/2022 13:09:14,73265,15,task-nzlp,,20399748,BLIND,6038054,Intro Experiment: General explanations,complete,,,computer,Desktop or Laptop,Mac OS 10.15.7,Chrome 99.0.4844.51,1440x900,1440x789,Part 1 completed,Colors_Only_Dutch,6,,Part 1 completed,Accuracy_level_0.55,,/task/320040/6/asset/white.png,,,,image-keyboard-response,16,16133,0.0-1.0-1.7,,,test,,0.6066666666666667,1,0.21496666666666667
1,1647202985547,13/03/2022 20:23:05,1647202985426,1,13/03/2022 21:23:05,73265,15,task-nzlp,,20348556,BLIND,6028207,Intro Experiment: General explanations,complete,,,computer,Desktop or Laptop,Mac OS 10.15.6,Safari 15.3,820x1180,1180x713,Part 1 completed,Colors_Only_Dutch,6,,Part 1 completed,Accuracy_level_0.55,16560,,,,,instructions,0,16562,0.0-0.0,,,,,,,
2,1647202985649,13/03/2022 20:23:05,1647202985532,1,13/03/2022 21:23:05,73265,15,task-nzlp,,20348556,BLIND,6028207,Intro Experiment: General explanations,complete,,,computer,Desktop or Laptop,Mac OS 10.15.6,Safari 15.3,820x1180,1180x713,Part 1 completed,Colors_Only_Dutch,6,,Part 1 completed,Accuracy_level_0.55,,"<div style=""font-size:60px;"">  </div>",,,,html-keyboard-response,1,16668,0.0-1.0-0.0,,,,,,,
3,1647202987129,13/03/2022 20:23:07,1647202987042,1,13/03/2022 21:23:07,73265,15,task-nzlp,,20348556,BLIND,6028207,Intro Experiment: General explanations,complete,,,computer,Desktop or Laptop,Mac OS 10.15.6,Safari 15.3,820x1180,1180x713,Part 1 completed,Colors_Only_Dutch,6,,Part 1 completed,Accuracy_level_0.55,,/task/320040/6/asset/pink.png,,,,image-keyboard-response,2,18176,0.0-1.0-1.0,,1,test, ,0,,0.026933333333333333
4,1647202987232,13/03/2022 20:23:07,1647202987150,1,13/03/2022 21:23:07,73265,15,task-nzlp,,20348556,BLIND,6028207,Intro Experiment: General explanations,complete,,,computer,Desktop or Laptop,Mac OS 10.15.6,Safari 15.3,820x1180,1180x713,Part 1 completed,Colors_Only_Dutch,6,,Part 1 completed,Accuracy_level_0.55,,"<div style=""font-size:60px;"">  </div>",,,,html-keyboard-response,3,18285,0.0-1.0-0.1,,,,,,,
5,1647202988722,13/03/2022 20:23:08,1647202988658,1,13/03/2022 21:23:08,73265,15,task-nzlp,,20348556,BLIND,6028207,Intro Experiment: General explanations,complete,,,computer,Desktop or Laptop,Mac OS 10.15.6,Safari 15.3,820x1180,1180x713,Part 1 completed,Colors_Only_Dutch,6,,Part 1 completed,Accuracy_level_0.55,422,/task/320040/6/asset/pink.png,,,,image-keyboard-response,4,19794,0.0-1.0-1.1,,1,test, ,0.43333333333333335,1,0.05386666666666667
6,1647202988844,13/03/2022 20:23:08,1647202988767,1,13/03/2022 21:23:08,73265,15,task-nzlp,,20348556,BLIND,6028207,Intro Experiment: General explanations,complete,,,computer,Desktop or Laptop,Mac OS 10.15.6,Safari 15.3,820x1180,1180x713,Part 1 completed,Colors_Only_Dutch,6,,Part 1 completed,Accuracy_level_0.55,,"<div style=""font-size:60px;"">  </div>",,,,html-keyboard-response,5,19902,0.0-1.0-0.2,,,,,,,
7,1647202990353,13/03/2022 20:23:10,1647202990276,1,13/03/2022 21:23:10,73265,15,task-nzlp,,20348556,BLIND,6028207,Intro Experiment: General explanations,complete,,,computer,Desktop or Laptop,Mac OS 10.15.6,Safari 15.3,820x1180,1180x713,Part 1 completed,Colors_Only_Dutch,6,,Part 1 completed,Accuracy_level_0.55,408,/task/320040/6/asset/pink.png,,,,image-keyboard-response,6,21411,0.0-1.0-1.2,,1,test, ,0.52,1,0.08083333333333333
8,1647202990444,13/03/2022 20:23:10,1647202990383,1,13/03/2022 21:23:10,73265,15,task-nzlp,,20348556,BLIND,6028207,Intro Experiment: General explanations,complete,,,computer,Desktop or Laptop,Mac OS 10.15.6,Safari 15.3,820x1180,1180x713,Part 1 completed,Colors_Only_Dutch,6,,Part 1 completed,Accuracy_level_0.55,,"<div style=""font-size:60px;"">  </div>",,,,html-keyboard-response,7,21519,0.0-1.0-0.3,,,,,,,
9,1647202991963,13/03/2022 20:23:11,1647202991892,1,13/03/2022 21:23:11,73265,15,task-nzlp,,20348556,BLIND,6028207,Intro Experiment: General explanations,complete,,,computer,Desktop or Laptop,Mac OS 10.15.6,Safari 15.3,820x1180,1180x713,Part 1 completed,Colors_Only_Dutch,6,,Part 1 completed,Accuracy_level_0.55,426,/task/320040/6/asset/pink.png,,,,image-keyboard-response,8,23027,0.0-1.0-1.3,,1,test, ,0.5571428571428572,1,0.10776666666666666
10,1647202992061,13/03/2022 20:23:12,1647202992001,1,13/03/2022 21:23:12,73265,15,task-nzlp,,20348556,BLIND,6028207,Intro Experiment: General explanations,complete,,,computer,Desktop or Laptop,Mac OS 10.15.6,Safari 15.3,820x1180,1180x713,Part 1 completed,Colors_Only_Dutch,6,,Part 1 completed,Accuracy_level_0.55,,"<div style=""font-size:60px;"">  </div>",,,,html-keyboard-response,9,23136,0.0-1.0-0.4,,,,,,,
11,1647202993577,13/03/2022 20:23:13,1647202993510,1,13/03/2022 21:23:13,73265,15,task-nzlp,,20348556,BLIND,6028207,Intro Experiment: General explanations,complete,,,computer,Desktop or Laptop,Mac OS 10.15.6,Safari 15.3,820x1180,1180x713,Part 1 completed,Colors_Only_Dutch,6,,Part 1 completed,Accuracy_level_0.55,410,/task/320040/6/asset/pink.png,,,,image-keyboard-response,10,24645,0.0-1.0-1.4,,1,test, ,0.5777777777777778,1,0.13473333333333334
12,1647202993683,13/03/2022 20:23:13,1647202993618,1,13/03/2022 21:23:13,73265,15,task-nzlp,,20348556,BLIND,6028207,Intro Experiment: General explanations,complete,,,computer,Desktop or Laptop,Mac OS 10.15.6,Safari 15.3,820x1180,1180x713,Part 1 completed,Colors_Only_Dutch,6,,Part 1 completed,Accuracy_level_0.55,,"<div style=""font-size:60px;"">  </div>",,,,html-keyboard-response,11,24754,0.0-1.0-0.5,,,,,,,
13,1647202995198,13/03/2022 20:23:15,1647202995128,1,13/03/2022 21:23:15,73265,15,task-nzlp,,20348556,BLIND,6028207,Intro Experiment: General explanations,complete,,,computer,Desktop or Laptop,Mac OS 10.15.6,Safari 15.3,820x1180,1180x713,Part 1 completed,Colors_Only_Dutch,6,,Part 1 completed,Accuracy_level_0.55,439,/task/320040/6/asset/pink.png,,,,image-keyboard-response,12,26263,0.0-1.0-1.5,,1,test, ,0.5909090909090909,1,0.1617
14,1647202995291,13/03/2022 20:23:15,1647202995236,1,13/03/2022 21:23:15,73265,15,task-nzlp,,20348556,BLIND,6028207,Intro Experiment: General explanations,complete,,,computer,Desktop or Laptop,Mac OS 10.15.6,Safari 15.3,820x1180,1180x713,Part 1 completed,Colors_Only_Dutch,6,,Part 1 completed,Accuracy_level_0.55,,"<div style=""font-size:60px;"">  </div>",,,,html-keyboard-response,13,26371,0.0-1.0-0.6,,,,,,,
15,1647202996816,13/03/2022 20:23:16,1647202996745,1,13/03/2022 21:23:16,73265,15,task-nzlp,,20348556,BLIND,6028207,Intro Experiment: General explanations,complete,,,computer,Desktop or Laptop,Mac OS 10.15.6,Safari 15.3,820x1180,1180x713,Part 1 completed,Colors_Only_Dutch,6,,Part 1 completed,Accuracy_level_0.55,,/task/320040/6/asset/red.png,,,,image-keyboard-response,14,27881,0.0-1.0-1.6,,,test,,0.6,1,0.18865
16,1647202996909,13/03/2022 20:23:16,1647202996853,1,13/03/2022 21:23:16,73265,15,task-nzlp,,20348556,BLIND,6028207,Intro Experiment: General explanations,complete,,,computer,Desktop or Laptop,Mac OS 10.15.6,Safari 15.3,820x1180,1180x713,Part 1 completed,Colors_Only_Dutch,6,,Part 1 completed,Accuracy_level_0.55,,"<div style=""font-size:60px;"">  </div>",,,,html-keyboard-response,15,27989,0.0-1.0-0.7,,,,,,,
17,1647202998440,13/03/2022 20:23:18,1647202998362,1,13/03/2022 21:23:18,73265,15,task-nzlp,,20348556,BLIND,6028207,Intro Experiment: General explanations,complete,,,computer,Desktop or Laptop,Mac OS 10.15.6,Safari 15.3,820x1180,1180x713,Part 1 completed,Colors_Only_Dutch,6,,Part 1 completed,Accuracy_level_0.55,795,/task/320040/6/asset/red.png,,,,image-keyboard-response,16,29497,0.0-1.0-1.7,,1,test, ,0.6066666666666667,1,0.2156
1,1646741913452,08/03/2022 12:18:33,1646741913648,1,08/03/2022 13:18:33,73265,15,task-nzlp,,20185649,BLIND,5972827,Intro Experiment: General explanations,complete,,,computer,Desktop or Laptop,Windows 10,Chrome 99.0.4844.51,1368x912,1368x801,Part 1 completed,Colors_Only_Dutch,6,,Part 1 completed,Accuracy_level_0.55,3334.2000000029802,,,,,instructions,0,3339,0.0-0.0,,,,,,,
2,1646741913544,08/03/2022 12:18:33,1646741913764,1,08/03/2022 13:18:33,73265,15,task-nzlp,,20185649,BLIND,5972827,Intro Experiment: General explanations,complete,,,computer,Desktop or Laptop,Windows 10,Chrome 99.0.4844.51,1368x912,1368x801,Part 1 completed,Colors_Only_Dutch,6,,Part 1 completed,Accuracy_level_0.55,,"<div style=""font-size:60px;"">  </div>",,,,html-keyboard-response,1,3456,0.0-1.0-0.0,,,,,,,
3,1646741915014,08/03/2022 12:18:35,1646741915282,1,08/03/2022 13:18:35,73265,15,task-nzlp,,20185649,BLIND,5972827,Intro Experiment: General explanations,complete,,,computer,Desktop or Laptop,Windows 10,Chrome 99.0.4844.51,1368x912,1368x801,Part 1 completed,Colors_Only_Dutch,6,,Part 1 completed,Accuracy_level_0.55,,/task/320040/6/asset/blue.png,,,,image-keyboard-response,2,4972,0.0-1.0-1.0,,1,test, ,0,,0.02725
4,1646741915106,08/03/2022 12:18:35,1646741915388,1,08/03/2022 13:18:35,73265,15,task-nzlp,,20185649,BLIND,5972827,Intro Experiment: General explanations,complete,,,computer,Desktop or Laptop,Windows 10,Chrome 99.0.4844.51,1368x912,1368x801,Part 1 completed,Colors_Only_Dutch,6,,Part 1 completed,Accuracy_level_0.55,,"<div style=""font-size:60px;"">  </div>",,,,html-keyboard-response,3,5079,0.0-1.0-0.1,,,,,,,
5,1646741916625,08/03/2022 12:18:36,1646741916902,1,08/03/2022 13:18:36,73265,15,task-nzlp,,20185649,BLIND,5972827,Intro Experiment: General explanations,complete,,,computer,Desktop or Laptop,Windows 10,Chrome 99.0.4844.51,1368x912,1368x801,Part 1 completed,Colors_Only_Dutch,6,,Part 1 completed,Accuracy_level_0.55,458.90000000596046,/task/320040/6/asset/blue.png,,,,image-keyboard-response,4,6593,0.0-1.0-1.1,,1,test, ,0.43333333333333335,1,0.05425
6,1646741916736,08/03/2022 12:18:36,1646741917009,1,08/03/2022 13:18:37,73265,15,task-nzlp,,20185649,BLIND,5972827,Intro Experiment: General explanations,complete,,,computer,Desktop or Laptop,Windows 10,Chrome 99.0.4844.51,1368x912,1368x801,Part 1 completed,Colors_Only_Dutch,6,,Part 1 completed,Accuracy_level_0.55,,"<div style=""font-size:60px;"">  </div>",,,,html-keyboard-response,5,6701,0.0-1.0-0.2,,,,,,,
7,1646741918235,08/03/2022 12:18:38,1646741918519,1,08/03/2022 13:18:38,73265,15,task-nzlp,,20185649,BLIND,5972827,Intro Experiment: General explanations,complete,,,computer,Desktop or Laptop,Windows 10,Chrome 99.0.4844.51,1368x912,1368x801,Part 1 completed,Colors_Only_Dutch,6,,Part 1 completed,Accuracy_level_0.55,385.20000000298023,/task/320040/6/asset/blue.png,,,,image-keyboard-response,6,8211,0.0-1.0-1.2,,1,test, ,0.52,1,0.0812
8,1646741918352,08/03/2022 12:18:38,1646741918628,1,08/03/2022 13:18:38,73265,15,task-nzlp,,20185649,BLIND,5972827,Intro Experiment: General explanations,complete,,,computer,Desktop or Laptop,Windows 10,Chrome 99.0.4844.51,1368x912,1368x801,Part 1 completed,Colors_Only_Dutch,6,,Part 1 completed,Accuracy_level_0.55,,"<div style=""font-size:60px;"">  </div>",,,,html-keyboard-response,7,8320,0.0-1.0-0.3,,,,,,,
9,1646741919884,08/03/2022 12:18:39,1646741920144,1,08/03/2022 13:18:40,73265,15,task-nzlp,,20185649,BLIND,5972827,Intro Experiment: General explanations,complete,,,computer,Desktop or Laptop,Windows 10,Chrome 99.0.4844.51,1368x912,1368x801,Part 1 completed,Colors_Only_Dutch,6,,Part 1 completed,Accuracy_level_0.55,388,/task/320040/6/asset/blue.png,,,,image-keyboard-response,8,9836,0.0-1.0-1.3,,1,test, ,0.5571428571428572,1,0.10828333333333333
10,1646741919986,08/03/2022 12:18:39,1646741920254,1,08/03/2022 13:18:40,73265,15,task-nzlp,,20185649,BLIND,5972827,Intro Experiment: General explanations,complete,,,computer,Desktop or Laptop,Windows 10,Chrome 99.0.4844.51,1368x912,1368x801,Part 1 completed,Colors_Only_Dutch,6,,Part 1 completed,Accuracy_level_0.55,,"<div style=""font-size:60px;"">  </div>",,,,html-keyboard-response,9,9946,0.0-1.0-0.4,,,,,,,
11,1646741921587,08/03/2022 12:18:41,1646741921759,1,08/03/2022 13:18:41,73265,15,task-nzlp,,20185649,BLIND,5972827,Intro Experiment: General explanations,complete,,,computer,Desktop or Laptop,Windows 10,Chrome 99.0.4844.51,1368x912,1368x801,Part 1 completed,Colors_Only_Dutch,6,,Part 1 completed,Accuracy_level_0.55,344.29999999701977,/task/320040/6/asset/blue.png,,,,image-keyboard-response,10,11451,0.0-1.0-1.4,,1,test, ,0.5777777777777778,1,0.1352
12,1646741921690,08/03/2022 12:18:41,1646741921867,1,08/03/2022 13:18:41,73265,15,task-nzlp,,20185649,BLIND,5972827,Intro Experiment: General explanations,complete,,,computer,Desktop or Laptop,Windows 10,Chrome 99.0.4844.51,1368x912,1368x801,Part 1 completed,Colors_Only_Dutch,6,,Part 1 completed,Accuracy_level_0.55,,"<div style=""font-size:60px;"">  </div>",,,,html-keyboard-response,11,11559,0.0-1.0-0.5,,,,,,,
13,1646741923115,08/03/2022 12:18:43,1646741923383,1,08/03/2022 13:18:43,73265,15,task-nzlp,,20185649,BLIND,5972827,Intro Experiment: General explanations,complete,,,computer,Desktop or Laptop,Windows 10,Chrome 99.0.4844.51,1368x912,1368x801,Part 1 completed,Colors_Only_Dutch,6,,Part 1 completed,Accuracy_level_0.55,421.6000000089407,/task/320040/6/asset/blue.png,,,,image-keyboard-response,12,13074,0.0-1.0-1.5,,1,test, ,0.5909090909090909,1,0.16226666666666667
14,1646741923211,08/03/2022 12:18:43,1646741923488,1,08/03/2022 13:18:43,73265,15,task-nzlp,,20185649,BLIND,5972827,Intro Experiment: General explanations,complete,,,computer,Desktop or Laptop,Windows 10,Chrome 99.0.4844.51,1368x912,1368x801,Part 1 completed,Colors_Only_Dutch,6,,Part 1 completed,Accuracy_level_0.55,,"<div style=""font-size:60px;"">  </div>",,,,html-keyboard-response,13,13180,0.0-1.0-0.6,,,,,,,
15,1646741924712,08/03/2022 12:18:44,1646741925001,1,08/03/2022 13:18:45,73265,15,task-nzlp,,20185649,BLIND,5972827,Intro Experiment: General explanations,complete,,,computer,Desktop or Laptop,Windows 10,Chrome 99.0.4844.51,1368x912,1368x801,Part 1 completed,Colors_Only_Dutch,6,,Part 1 completed,Accuracy_level_0.55,568.9000000059605,/task/320040/6/asset/blue.png,,,,image-keyboard-response,14,14693,0.0-1.0-1.6,,1,test, ,0.6,1,0.18923333333333334
16,1646741924871,08/03/2022 12:18:44,1646741925110,1,08/03/2022 13:18:45,73265,15,task-nzlp,,20185649,BLIND,5972827,Intro Experiment: General explanations,complete,,,computer,Desktop or Laptop,Windows 10,Chrome 99.0.4844.51,1368x912,1368x801,Part 1 completed,Colors_Only_Dutch,6,,Part 1 completed,Accuracy_level_0.55,,"<div style=""font-size:60px;"">  </div>",,,,html-keyboard-response,15,14801,0.0-1.0-0.7,,,,,,,
17,1646741926351,08/03/2022 12:18:46,1646741926623,1,08/03/2022 13:18:46,73265,15,task-nzlp,,20185649,BLIND,5972827,Intro Experiment: General explanations,complete,,,computer,Desktop or Laptop,Windows 10,Chrome 99.0.4844.51,1368x912,1368x801,Part 1 completed,Colors_Only_Dutch,6,,Part 1 completed,Accuracy_level_0.55,,/task/320040/6/asset/black.png,,,,image-keyboard-response,16,16314,0.0-1.0-1.7,,,test,,0.6066666666666667,1,0.21626666666666666
1,1646737380484,08/03/2022 11:03:00,1646737380314,1,08/03/2022 12:03:00,73265,15,task-nzlp,,20182945,BLIND,5971753,Intro Experiment: General explanations,complete,,,computer,Desktop or Laptop,Mac OS 10.15.7,Chrome 98.0.4758.109,1440x900,1440x821,Part 1 completed,Colors_Only_Dutch,6,,Part 1 completed,Accuracy_level_0.55,27152.69999998808,,,,,instructions,0,27163,0.0-0.0,,,,,,,
2,1646737380567,08/03/2022 11:03:00,1646737380431,1,08/03/2022 12:03:00,73265,15,task-nzlp,,20182945,BLIND,5971753,Intro Experiment: General explanations,complete,,,computer,Desktop or Laptop,Mac OS 10.15.7,Chrome 98.0.4758.109,1440x900,1440x821,Part 1 completed,Colors_Only_Dutch,6,,Part 1 completed,Accuracy_level_0.55,,"<div style=""font-size:60px;"">  </div>",,,,html-keyboard-response,1,27281,0.0-1.0-0.0,,,,,,,
3,1646737382044,08/03/2022 11:03:02,1646737381936,1,08/03/2022 12:03:01,73265,15,task-nzlp,,20182945,BLIND,5971753,Intro Experiment: General explanations,complete,,,computer,Desktop or Laptop,Mac OS 10.15.7,Chrome 98.0.4758.109,1440x900,1440x821,Part 1 completed,Colors_Only_Dutch,6,,Part 1 completed,Accuracy_level_0.55,,/task/320040/6/asset/yellow.png,,,,image-keyboard-response,2,28785,0.0-1.0-1.0,,1,test, ,0,,0.02705
4,1646737382138,08/03/2022 11:03:02,1646737382039,1,08/03/2022 12:03:02,73265,15,task-nzlp,,20182945,BLIND,5971753,Intro Experiment: General explanations,complete,,,computer,Desktop or Laptop,Mac OS 10.15.7,Chrome 98.0.4758.109,1440x900,1440x821,Part 1 completed,Colors_Only_Dutch,6,,Part 1 completed,Accuracy_level_0.55,,"<div style=""font-size:60px;"">  </div>",,,,html-keyboard-response,3,28889,0.0-1.0-0.1,,,,,,,
5,1646737383649,08/03/2022 11:03:03,1646737383542,1,08/03/2022 12:03:03,73265,15,task-nzlp,,20182945,BLIND,5971753,Intro Experiment: General explanations,complete,,,computer,Desktop or Laptop,Mac OS 10.15.7,Chrome 98.0.4758.109,1440x900,1440x821,Part 1 completed,Colors_Only_Dutch,6,,Part 1 completed,Accuracy_level_0.55,535.4000000059605,/task/320040/6/asset/yellow.png,,,,image-keyboard-response,4,30392,0.0-1.0-1.1,,1,test, ,0.43333333333333335,1,0.053816666666666665
6,1646737383750,08/03/2022 11:03:03,1646737383645,1,08/03/2022 12:03:03,73265,15,task-nzlp,,20182945,BLIND,5971753,Intro Experiment: General explanations,complete,,,computer,Desktop or Laptop,Mac OS 10.15.7,Chrome 98.0.4758.109,1440x900,1440x821,Part 1 completed,Colors_Only_Dutch,6,,Part 1 completed,Accuracy_level_0.55,,"<div style=""font-size:60px;"">  </div>",,,,html-keyboard-response,5,30494,0.0-1.0-0.2,,,,,,,
7,1646737385277,08/03/2022 11:03:05,1646737385150,1,08/03/2022 12:03:05,73265,15,task-nzlp,,20182945,BLIND,5971753,Intro Experiment: General explanations,complete,,,computer,Desktop or Laptop,Mac OS 10.15.7,Chrome 98.0.4758.109,1440x900,1440x821,Part 1 completed,Colors_Only_Dutch,6,,Part 1 completed,Accuracy_level_0.55,623.4000000059605,/task/320040/6/asset/yellow.png,,,,image-keyboard-response,6,31999,0.0-1.0-1.2,,1,test, ,0.52,1,0.08061666666666667
8,1646737385358,08/03/2022 11:03:05,1646737385254,1,08/03/2022 12:03:05,73265,15,task-nzlp,,20182945,BLIND,5971753,Intro Experiment: General explanations,complete,,,computer,Desktop or Laptop,Mac OS 10.15.7,Chrome 98.0.4758.109,1440x900,1440x821,Part 1 completed,Colors_Only_Dutch,6,,Part 1 completed,Accuracy_level_0.55,,"<div style=""font-size:60px;"">  </div>",,,,html-keyboard-response,7,32103,0.0-1.0-0.3,,,,,,,
9,1646737386871,08/03/2022 11:03:06,1646737386759,1,08/03/2022 12:03:06,73265,15,task-nzlp,,20182945,BLIND,5971753,Intro Experiment: General explanations,complete,,,computer,Desktop or Laptop,Mac OS 10.15.7,Chrome 98.0.4758.109,1440x900,1440x821,Part 1 completed,Colors_Only_Dutch,6,,Part 1 completed,Accuracy_level_0.55,,/task/320040/6/asset/red.png,,,,image-keyboard-response,8,33609,0.0-1.0-1.3,,,test,,0.5571428571428572,1,0.10743333333333334
10,1646737386971,08/03/2022 11:03:06,1646737386862,1,08/03/2022 12:03:06,73265,15,task-nzlp,,20182945,BLIND,5971753,Intro Experiment: General explanations,complete,,,computer,Desktop or Laptop,Mac OS 10.15.7,Chrome 98.0.4758.109,1440x900,1440x821,Part 1 completed,Colors_Only_Dutch,6,,Part 1 completed,Accuracy_level_0.55,,"<div style=""font-size:60px;"">  </div>",,,,html-keyboard-response,9,33712,0.0-1.0-0.4,,,,,,,
11,1646737388496,08/03/2022 11:03:08,1646737388369,1,08/03/2022 12:03:08,73265,15,task-nzlp,,20182945,BLIND,5971753,Intro Experiment: General explanations,complete,,,computer,Desktop or Laptop,Mac OS 10.15.7,Chrome 98.0.4758.109,1440x900,1440x821,Part 1 completed,Colors_Only_Dutch,6,,Part 1 completed,Accuracy_level_0.55,436,/task/320040/6/asset/red.png,,,,image-keyboard-response,10,35219,0.0-1.0-1.4,,1,test, ,0.5777777777777778,1,0.13426666666666667
12,1646737388590,08/03/2022 11:03:08,1646737388480,1,08/03/2022 12:03:08,73265,15,task-nzlp,,20182945,BLIND,5971753,Intro Experiment: General explanations,complete,,,computer,Desktop or Laptop,Mac OS 10.15.7,Chrome 98.0.4758.109,1440x900,1440x821,Part 1 completed,Colors_Only_Dutch,6,,Part 1 completed,Accuracy_level_0.55,,"<div style=""font-size:60px;"">  </div>",,,,html-keyboard-response,11,35330,0.0-1.0-0.5,,,,,,,
13,1646737390109,08/03/2022 11:03:10,1646737389994,1,08/03/2022 12:03:09,73265,15,task-nzlp,,20182945,BLIND,5971753,Intro Experiment: General explanations,complete,,,computer,Desktop or Laptop,Mac OS 10.15.7,Chrome 98.0.4758.109,1440x900,1440x821,Part 1 completed,Colors_Only_Dutch,6,,Part 1 completed,Accuracy_level_0.55,455.2999999821186,/task/320040/6/asset/red.png,,,,image-keyboard-response,12,36844,0.0-1.0-1.5,,1,test, ,0.5909090909090909,1,0.16135
14,1646737390231,08/03/2022 11:03:10,1646737390097,1,08/03/2022 12:03:10,73265,15,task-nzlp,,20182945,BLIND,5971753,Intro Experiment: General explanations,complete,,,computer,Desktop or Laptop,Mac OS 10.15.7,Chrome 98.0.4758.109,1440x900,1440x821,Part 1 completed,Colors_Only_Dutch,6,,Part 1 completed,Accuracy_level_0.55,,"<div style=""font-size:60px;"">  </div>",,,,html-keyboard-response,13,36947,0.0-1.0-0.6,,,,,,,
15,1646737391715,08/03/2022 11:03:11,1646737391607,1,08/03/2022 12:03:11,73265,15,task-nzlp,,20182945,BLIND,5971753,Intro Experiment: General explanations,complete,,,computer,Desktop or Laptop,Mac OS 10.15.7,Chrome 98.0.4758.109,1440x900,1440x821,Part 1 completed,Colors_Only_Dutch,6,,Part 1 completed,Accuracy_level_0.55,439.09999999403954,/task/320040/6/asset/red.png,,,,image-keyboard-response,14,38456,0.0-1.0-1.6,,1,test, ,0.6,1,0.18823333333333334
16,1646737391828,08/03/2022 11:03:11,1646737391709,1,08/03/2022 12:03:11,73265,15,task-nzlp,,20182945,BLIND,5971753,Intro Experiment: General explanations,complete,,,computer,Desktop or Laptop,Mac OS 10.15.7,Chrome 98.0.4758.109,1440x900,1440x821,Part 1 completed,Colors_Only_Dutch,6,,Part 1 completed,Accuracy_level_0.55,,"<div style=""font-size:60px;"">  </div>",,,,html-keyboard-response,15,38559,0.0-1.0-0.7,,,,,,,
17,1646737393331,08/03/2022 11:03:13,1646737393213,1,08/03/2022 12:03:13,73265,15,task-nzlp,,20182945,BLIND,5971753,Intro Experiment: General explanations,complete,,,computer,Desktop or Laptop,Mac OS 10.15.7,Chrome 98.0.4758.109,1440x900,1440x821,Part 1 completed,Colors_Only_Dutch,6,,Part 1 completed,Accuracy_level_0.55,421,/task/320040/6/asset/red.png,,,,image-keyboard-response,16,40063,0.0-1.0-1.7,,1,test, ,0.6066666666666667,1,0.215
1,1646735299166,08/03/2022 10:28:19,1646735300829,1,08/03/2022 11:28:20,73265,15,task-nzlp,,20181927,BLIND,5973525,Intro Experiment: General explanations,complete,,,computer,Desktop or Laptop,Windows 10,Chrome 99.0.4844.51,1366x768,1366x625,Part 1 completed,Colors_Only_Dutch,6,,Part 1 completed,Accuracy_level_0.55,9022.100000143051,,,,,instructions,0,9030,0.0-0.0,,,,,,,
2,1646735299260,08/03/2022 10:28:19,1646735300955,1,08/03/2022 11:28:20,73265,15,task-nzlp,,20181927,BLIND,5973525,Intro Experiment: General explanations,complete,,,computer,Desktop or Laptop,Windows 10,Chrome 99.0.4844.51,1366x768,1366x625,Part 1 completed,Colors_Only_Dutch,6,,Part 1 completed,Accuracy_level_0.55,,"<div style=""font-size:60px;"">  </div>",,,,html-keyboard-response,1,9157,0.0-1.0-0.0,,,,,,,
3,1646735300734,08/03/2022 10:28:20,1646735302465,1,08/03/2022 11:28:22,73265,15,task-nzlp,,20181927,BLIND,5973525,Intro Experiment: General explanations,complete,,,computer,Desktop or Laptop,Windows 10,Chrome 99.0.4844.51,1366x768,1366x625,Part 1 completed,Colors_Only_Dutch,6,,Part 1 completed,Accuracy_level_0.55,,/task/320040/6/asset/white.png,,,,image-keyboard-response,2,10666,0.0-1.0-1.0,,1,test, ,0,,0.027283333333333333
4,1646735300832,08/03/2022 10:28:20,1646735302569,1,08/03/2022 11:28:22,73265,15,task-nzlp,,20181927,BLIND,5973525,Intro Experiment: General explanations,complete,,,computer,Desktop or Laptop,Windows 10,Chrome 99.0.4844.51,1366x768,1366x625,Part 1 completed,Colors_Only_Dutch,6,,Part 1 completed,Accuracy_level_0.55,,"<div style=""font-size:60px;"">  </div>",,,,html-keyboard-response,3,10771,0.0-1.0-0.1,,,,,,,
5,1646735302328,08/03/2022 10:28:22,1646735304075,1,08/03/2022 11:28:24,73265,15,task-nzlp,,20181927,BLIND,5973525,Intro Experiment: General explanations,complete,,,computer,Desktop or Laptop,Windows 10,Chrome 99.0.4844.51,1366x768,1366x625,Part 1 completed,Colors_Only_Dutch,6,,Part 1 completed,Accuracy_level_0.55,629.2999999523163,/task/320040/6/asset/white.png,,,,image-keyboard-response,4,12276,0.0-1.0-1.1,,1,test, ,0.43333333333333335,1,0.05411666666666667
6,1646735302442,08/03/2022 10:28:22,1646735304185,1,08/03/2022 11:28:24,73265,15,task-nzlp,,20181927,BLIND,5973525,Intro Experiment: General explanations,complete,,,computer,Desktop or Laptop,Windows 10,Chrome 99.0.4844.51,1366x768,1366x625,Part 1 completed,Colors_Only_Dutch,6,,Part 1 completed,Accuracy_level_0.55,,"<div style=""font-size:60px;"">  </div>",,,,html-keyboard-response,5,12386,0.0-1.0-0.2,,,,,,,
7,1646735303953,08/03/2022 10:28:23,1646735305704,1,08/03/2022 11:28:25,73265,15,task-nzlp,,20181927,BLIND,5973525,Intro Experiment: General explanations,complete,,,computer,Desktop or Laptop,Windows 10,Chrome 99.0.4844.51,1366x768,1366x625,Part 1 completed,Colors_Only_Dutch,6,,Part 1 completed,Accuracy_level_0.55,575.9000000953674,/task/320040/6/asset/white.png,,,,image-keyboard-response,6,13906,0.0-1.0-1.2,,1,test, ,0.52,1,0.08126666666666667
8,1646735304069,08/03/2022 10:28:24,1646735305814,1,08/03/2022 11:28:25,73265,15,task-nzlp,,20181927,BLIND,5973525,Intro Experiment: General explanations,complete,,,computer,Desktop or Laptop,Windows 10,Chrome 99.0.4844.51,1366x768,1366x625,Part 1 completed,Colors_Only_Dutch,6,,Part 1 completed,Accuracy_level_0.55,,"<div style=""font-size:60px;"">  </div>",,,,html-keyboard-response,7,14016,0.0-1.0-0.3,,,,,,,
9,1646735305570,08/03/2022 10:28:25,1646735307325,1,08/03/2022 11:28:27,73265,15,task-nzlp,,20181927,BLIND,5973525,Intro Experiment: General explanations,complete,,,computer,Desktop or Laptop,Windows 10,Chrome 99.0.4844.51,1366x768,1366x625,Part 1 completed,Colors_Only_Dutch,6,,Part 1 completed,Accuracy_level_0.55,,/task/320040/6/asset/yellow.png,,,,image-keyboard-response,8,15527,0.0-1.0-1.3,,,test,,0.5571428571428572,1,0.10828333333333333
10,1646735305679,08/03/2022 10:28:25,1646735307436,1,08/03/2022 11:28:27,73265,15,task-nzlp,,20181927,BLIND,5973525,Intro Experiment: General explanations,complete,,,computer,Desktop or Laptop,Windows 10,Chrome 99.0.4844.51,1366x768,1366x625,Part 1 completed,Colors_Only_Dutch,6,,Part 1 completed,Accuracy_level_0.55,,"<div style=""font-size:60px;"">  </div>",,,,html-keyboard-response,9,15638,0.0-1.0-0.4,,,,,,,
11,1646735307196,08/03/2022 10:28:27,1646735308945,1,08/03/2022 11:28:28,73265,15,task-nzlp,,20181927,BLIND,5973525,Intro Experiment: General explanations,complete,,,computer,Desktop or Laptop,Windows 10,Chrome 99.0.4844.51,1366x768,1366x625,Part 1 completed,Colors_Only_Dutch,6,,Part 1 completed,Accuracy_level_0.55,670.5999999046326,/task/320040/6/asset/yellow.png,,,,image-keyboard-response,10,17146,0.0-1.0-1.4,,1,test, ,0.5777777777777778,1,0.13528333333333334
12,1646735307320,08/03/2022 10:28:27,1646735309059,1,08/03/2022 11:28:29,73265,15,task-nzlp,,20181927,BLIND,5973525,Intro Experiment: General explanations,complete,,,computer,Desktop or Laptop,Windows 10,Chrome 99.0.4844.51,1366x768,1366x625,Part 1 completed,Colors_Only_Dutch,6,,Part 1 completed,Accuracy_level_0.55,,"<div style=""font-size:60px;"">  </div>",,,,html-keyboard-response,11,17261,0.0-1.0-0.5,,,,,,,
13,1646735308839,08/03/2022 10:28:28,1646735310585,1,08/03/2022 11:28:30,73265,15,task-nzlp,,20181927,BLIND,5973525,Intro Experiment: General explanations,complete,,,computer,Desktop or Laptop,Windows 10,Chrome 99.0.4844.51,1366x768,1366x625,Part 1 completed,Colors_Only_Dutch,6,,Part 1 completed,Accuracy_level_0.55,534.5,/task/320040/6/asset/yellow.png,,,,image-keyboard-response,12,18787,0.0-1.0-1.5,,1,test, ,0.5909090909090909,1,0.16261666666666666
14,1646735308948,08/03/2022 10:28:28,1646735310695,1,08/03/2022 11:28:30,73265,15,task-nzlp,,20181927,BLIND,5973525,Intro Experiment: General explanations,complete,,,computer,Desktop or Laptop,Windows 10,Chrome 99.0.4844.51,1366x768,1366x625,Part 1 completed,Colors_Only_Dutch,6,,Part 1 completed,Accuracy_level_0.55,,"<div style=""font-size:60px;"">  </div>",,,,html-keyboard-response,13,18897,0.0-1.0-0.6,,,,,,,
15,1646735310475,08/03/2022 10:28:30,1646735312204,1,08/03/2022 11:28:32,73265,15,task-nzlp,,20181927,BLIND,5973525,Intro Experiment: General explanations,complete,,,computer,Desktop or Laptop,Windows 10,Chrome 99.0.4844.51,1366x768,1366x625,Part 1 completed,Colors_Only_Dutch,6,,Part 1 completed,Accuracy_level_0.55,510.5,/task/320040/6/asset/yellow.png,,,,image-keyboard-response,14,20406,0.0-1.0-1.6,,1,test, ,0.6,1,0.1896
16,1646735310586,08/03/2022 10:28:30,1646735312314,1,08/03/2022 11:28:32,73265,15,task-nzlp,,20181927,BLIND,5973525,Intro Experiment: General explanations,complete,,,computer,Desktop or Laptop,Windows 10,Chrome 99.0.4844.51,1366x768,1366x625,Part 1 completed,Colors_Only_Dutch,6,,Part 1 completed,Accuracy_level_0.55,,"<div style=""font-size:60px;"">  </div>",,,,html-keyboard-response,15,20515,0.0-1.0-0.7,,,,,,,
17,1646735312088,08/03/2022 10:28:32,1646735313825,1,08/03/2022 11:28:33,73265,15,task-nzlp,,20181927,BLIND,5973525,Intro Experiment: General explanations,complete,,,computer,Desktop or Laptop,Windows 10,Chrome 99.0.4844.51,1366x768,1366x625,Part 1 completed,Colors_Only_Dutch,6,,Part 1 completed,Accuracy_level_0.55,478.30000019073486,/task/320040/6/asset/yellow.png,,,,image-keyboard-response,16,22027,0.0-1.0-1.7,,1,test, ,0.6066666666666667,1,0.21661666666666668
1,1646731193334,08/03/2022 09:19:53,1646731193116,1,08/03/2022 10:19:53,73265,15,task-nzlp,,20179578,BLIND,5972885,Intro Experiment: General explanations,complete,,,computer,Desktop or Laptop,Mac OS 10.15.7,Safari 15.2,1366x768,1366x688,Part 1 completed,Colors_Only_Dutch,6,,Part 1 completed,Accuracy_level_0.55,5935,,,,,instructions,0,5938,0.0-0.0,,,,,,,
2,1646731193460,08/03/2022 09:19:53,1646731193221,1,08/03/2022 10:19:53,73265,15,task-nzlp,,20179578,BLIND,5972885,Intro Experiment: General explanations,complete,,,computer,Desktop or Laptop,Mac OS 10.15.7,Safari 15.2,1366x768,1366x688,Part 1 completed,Colors_Only_Dutch,6,,Part 1 completed,Accuracy_level_0.55,,"<div style=""font-size:60px;"">  </div>",,,,html-keyboard-response,1,6043,0.0-1.0-0.0,,,,,,,
3,1646731194882,08/03/2022 09:19:54,1646731194726,1,08/03/2022 10:19:54,73265,15,task-nzlp,,20179578,BLIND,5972885,Intro Experiment: General explanations,complete,,,computer,Desktop or Laptop,Mac OS 10.15.7,Safari 15.2,1366x768,1366x688,Part 1 completed,Colors_Only_Dutch,6,,Part 1 completed,Accuracy_level_0.55,,/task/320040/6/asset/black.png,,,,image-keyboard-response,2,7547,0.0-1.0-1.0,,1,test, ,0,,0.026833333333333334
4,1646731195181,08/03/2022 09:19:55,1646731194830,1,08/03/2022 10:19:54,73265,15,task-nzlp,,20179578,BLIND,5972885,Intro Experiment: General explanations,complete,,,computer,Desktop or Laptop,Mac OS 10.15.7,Safari 15.2,1366x768,1366x688,Part 1 completed,Colors_Only_Dutch,6,,Part 1 completed,Accuracy_level_0.55,,"<div style=""font-size:60px;"">  </div>",,,,html-keyboard-response,3,7652,0.0-1.0-0.1,,,,,,,
5,1646731196431,08/03/2022 09:19:56,1646731196333,1,08/03/2022 10:19:56,73265,15,task-nzlp,,20179578,BLIND,5972885,Intro Experiment: General explanations,complete,,,computer,Desktop or Laptop,Mac OS 10.15.7,Safari 15.2,1366x768,1366x688,Part 1 completed,Colors_Only_Dutch,6,,Part 1 completed,Accuracy_level_0.55,527,/task/320040/6/asset/black.png,,,,image-keyboard-response,4,9155,0.0-1.0-1.1,,1,test, ,0.43333333333333335,1,0.05361666666666667
6,1646731196541,08/03/2022 09:19:56,1646731196437,1,08/03/2022 10:19:56,73265,15,task-nzlp,,20179578,BLIND,5972885,Intro Experiment: General explanations,complete,,,computer,Desktop or Laptop,Mac OS 10.15.7,Safari 15.2,1366x768,1366x688,Part 1 completed,Colors_Only_Dutch,6,,Part 1 completed,Accuracy_level_0.55,,"<div style=""font-size:60px;"">  </div>",,,,html-keyboard-response,5,9259,0.0-1.0-0.2,,,,,,,
7,1646731198041,08/03/2022 09:19:58,1646731197943,1,08/03/2022 10:19:57,73265,15,task-nzlp,,20179578,BLIND,5972885,Intro Experiment: General explanations,complete,,,computer,Desktop or Laptop,Mac OS 10.15.7,Safari 15.2,1366x768,1366x688,Part 1 completed,Colors_Only_Dutch,6,,Part 1 completed,Accuracy_level_0.55,496,/task/320040/6/asset/black.png,,,,image-keyboard-response,6,10765,0.0-1.0-1.2,,1,test, ,0.52,1,0.08045
8,1646731198151,08/03/2022 09:19:58,1646731198048,1,08/03/2022 10:19:58,73265,15,task-nzlp,,20179578,BLIND,5972885,Intro Experiment: General explanations,complete,,,computer,Desktop or Laptop,Mac OS 10.15.7,Safari 15.2,1366x768,1366x688,Part 1 completed,Colors_Only_Dutch,6,,Part 1 completed,Accuracy_level_0.55,,"<div style=""font-size:60px;"">  </div>",,,,html-keyboard-response,7,10870,0.0-1.0-0.3,,,,,,,
9,1646731199651,08/03/2022 09:19:59,1646731199553,1,08/03/2022 10:19:59,73265,15,task-nzlp,,20179578,BLIND,5972885,Intro Experiment: General explanations,complete,,,computer,Desktop or Laptop,Mac OS 10.15.7,Safari 15.2,1366x768,1366x688,Part 1 completed,Colors_Only_Dutch,6,,Part 1 completed,Accuracy_level_0.55,473,/task/320040/6/asset/black.png,,,,image-keyboard-response,8,12374,0.0-1.0-1.3,,1,test, ,0.5571428571428572,1,0.10728333333333333
10,1646731199767,08/03/2022 09:19:59,1646731199657,1,08/03/2022 10:19:59,73265,15,task-nzlp,,20179578,BLIND,5972885,Intro Experiment: General explanations,complete,,,computer,Desktop or Laptop,Mac OS 10.15.7,Safari 15.2,1366x768,1366x688,Part 1 completed,Colors_Only_Dutch,6,,Part 1 completed,Accuracy_level_0.55,,"<div style=""font-size:60px;"">  </div>",,,,html-keyboard-response,9,12479,0.0-1.0-0.4,,,,,,,
11,1646731201267,08/03/2022 09:20:01,1646731201164,1,08/03/2022 10:20:01,73265,15,task-nzlp,,20179578,BLIND,5972885,Intro Experiment: General explanations,complete,,,computer,Desktop or Laptop,Mac OS 10.15.7,Safari 15.2,1366x768,1366x688,Part 1 completed,Colors_Only_Dutch,6,,Part 1 completed,Accuracy_level_0.55,484,/task/320040/6/asset/black.png,,,,image-keyboard-response,10,13985,0.0-1.0-1.4,,1,test, ,0.5777777777777778,1,0.13413333333333333
12,1646731201364,08/03/2022 09:20:01,1646731201268,1,08/03/2022 10:20:01,73265,15,task-nzlp,,20179578,BLIND,5972885,Intro Experiment: General explanations,complete,,,computer,Desktop or Laptop,Mac OS 10.15.7,Safari 15.2,1366x768,1366x688,Part 1 completed,Colors_Only_Dutch,6,,Part 1 completed,Accuracy_level_0.55,,"<div style=""font-size:60px;"">  </div>",,,,html-keyboard-response,11,14090,0.0-1.0-0.5,,,,,,,
13,1646731202881,08/03/2022 09:20:02,1646731202773,1,08/03/2022 10:20:02,73265,15,task-nzlp,,20179578,BLIND,5972885,Intro Experiment: General explanations,complete,,,computer,Desktop or Laptop,Mac OS 10.15.7,Safari 15.2,1366x768,1366x688,Part 1 completed,Colors_Only_Dutch,6,,Part 1 completed,Accuracy_level_0.55,505,/task/320040/6/asset/black.png,,,,image-keyboard-response,12,15595,0.0-1.0-1.5,,1,test, ,0.5909090909090909,1,0.16095
14,1646731202989,08/03/2022 09:20:02,1646731202878,1,08/03/2022 10:20:02,73265,15,task-nzlp,,20179578,BLIND,5972885,Intro Experiment: General explanations,complete,,,computer,Desktop or Laptop,Mac OS 10.15.7,Safari 15.2,1366x768,1366x688,Part 1 completed,Colors_Only_Dutch,6,,Part 1 completed,Accuracy_level_0.55,,"<div style=""font-size:60px;"">  </div>",,,,html-keyboard-response,13,15700,0.0-1.0-0.6,,,,,,,
15,1646731204489,08/03/2022 09:20:04,1646731204382,1,08/03/2022 10:20:04,73265,15,task-nzlp,,20179578,BLIND,5972885,Intro Experiment: General explanations,complete,,,computer,Desktop or Laptop,Mac OS 10.15.7,Safari 15.2,1366x768,1366x688,Part 1 completed,Colors_Only_Dutch,6,,Part 1 completed,Accuracy_level_0.55,458.9999999999982,/task/320040/6/asset/black.png,,,,image-keyboard-response,14,17203,0.0-1.0-1.6,,1,test, ,0.6,1,0.18776666666666667
16,1646731204681,08/03/2022 09:20:04,1646731204485,1,08/03/2022 10:20:04,73265,15,task-nzlp,,20179578,BLIND,5972885,Intro Experiment: General explanations,complete,,,computer,Desktop or Laptop,Mac OS 10.15.7,Safari 15.2,1366x768,1366x688,Part 1 completed,Colors_Only_Dutch,6,,Part 1 completed,Accuracy_level_0.55,,"<div style=""font-size:60px;"">  </div>",,,,html-keyboard-response,15,17307,0.0-1.0-0.7,,,,,,,
17,1646731206102,08/03/2022 09:20:06,1646731205997,1,08/03/2022 10:20:05,73265,15,task-nzlp,,20179578,BLIND,5972885,Intro Experiment: General explanations,complete,,,computer,Desktop or Laptop,Mac OS 10.15.7,Safari 15.2,1366x768,1366x688,Part 1 completed,Colors_Only_Dutch,6,,Part 1 completed,Accuracy_level_0.55,406,/task/320040/6/asset/black.png,,,,image-keyboard-response,16,18812,0.0-1.0-1.7,,1,test, ,0.6066666666666667,1,0.21468333333333334
1,1646729305846,08/03/2022 08:48:25,1646729305732,1,08/03/2022 09:48:25,73265,15,task-nzlp,,20178135,BLIND,5972214,Intro Experiment: General explanations,complete,,,computer,Desktop or Laptop,Windows 10,Edge 98.0.1108.62,3440x1440,3276x1266,Part 1 completed,Colors_Only_Dutch,6,,Part 1 completed,Accuracy_level_0.55,11726.5,,,,,instructions,0,11745,0.0-0.0,,,,,,,
2,1646729305943,08/03/2022 08:48:25,1646729305845,1,08/03/2022 09:48:25,73265,15,task-nzlp,,20178135,BLIND,5972214,Intro Experiment: General explanations,complete,,,computer,Desktop or Laptop,Windows 10,Edge 98.0.1108.62,3440x1440,3276x1266,Part 1 completed,Colors_Only_Dutch,6,,Part 1 completed,Accuracy_level_0.55,,"<div style=""font-size:60px;"">  </div>",,,,html-keyboard-response,1,11858,0.0-1.0-0.0,,,,,,,
3,1646729307430,08/03/2022 08:48:27,1646729307354,1,08/03/2022 09:48:27,73265,15,task-nzlp,,20178135,BLIND,5972214,Intro Experiment: General explanations,complete,,,computer,Desktop or Laptop,Windows 10,Edge 98.0.1108.62,3440x1440,3276x1266,Part 1 completed,Colors_Only_Dutch,6,,Part 1 completed,Accuracy_level_0.55,,/task/320040/6/asset/yellow.png,,,,image-keyboard-response,2,13366,0.0-1.0-1.0,,1,test, ,0,,0.027033333333333333
4,1646729307538,08/03/2022 08:48:27,1646729307462,1,08/03/2022 09:48:27,73265,15,task-nzlp,,20178135,BLIND,5972214,Intro Experiment: General explanations,complete,,,computer,Desktop or Laptop,Windows 10,Edge 98.0.1108.62,3440x1440,3276x1266,Part 1 completed,Colors_Only_Dutch,6,,Part 1 completed,Accuracy_level_0.55,,"<div style=""font-size:60px;"">  </div>",,,,html-keyboard-response,3,13475,0.0-1.0-0.1,,,,,,,
5,1646729309025,08/03/2022 08:48:29,1646729308977,1,08/03/2022 09:48:28,73265,15,task-nzlp,,20178135,BLIND,5972214,Intro Experiment: General explanations,complete,,,computer,Desktop or Laptop,Windows 10,Edge 98.0.1108.62,3440x1440,3276x1266,Part 1 completed,Colors_Only_Dutch,6,,Part 1 completed,Accuracy_level_0.55,401.2000000476837,/task/320040/6/asset/yellow.png,,,,image-keyboard-response,4,14989,0.0-1.0-1.1,,1,test, ,0.43333333333333335,1,0.05408333333333333
6,1646729309135,08/03/2022 08:48:29,1646729309085,1,08/03/2022 09:48:29,73265,15,task-nzlp,,20178135,BLIND,5972214,Intro Experiment: General explanations,complete,,,computer,Desktop or Laptop,Windows 10,Edge 98.0.1108.62,3440x1440,3276x1266,Part 1 completed,Colors_Only_Dutch,6,,Part 1 completed,Accuracy_level_0.55,,"<div style=""font-size:60px;"">  </div>",,,,html-keyboard-response,5,15098,0.0-1.0-0.2,,,,,,,
7,1646729310660,08/03/2022 08:48:30,1646729310615,1,08/03/2022 09:48:30,73265,15,task-nzlp,,20178135,BLIND,5972214,Intro Experiment: General explanations,complete,,,computer,Desktop or Laptop,Windows 10,Edge 98.0.1108.62,3440x1440,3276x1266,Part 1 completed,Colors_Only_Dutch,6,,Part 1 completed,Accuracy_level_0.55,351.30000019073486,/task/320040/6/asset/yellow.png,,,,image-keyboard-response,6,16628,0.0-1.0-1.2,,1,test, ,0.52,1,0.08138333333333334
8,1646729310776,08/03/2022 08:48:30,1646729310729,1,08/03/2022 09:48:30,73265,15,task-nzlp,,20178135,BLIND,5972214,Intro Experiment: General explanations,complete,,,computer,Desktop or Laptop,Windows 10,Edge 98.0.1108.62,3440x1440,3276x1266,Part 1 completed,Colors_Only_Dutch,6,,Part 1 completed,Accuracy_level_0.55,,"<div style=""font-size:60px;"">  </div>",,,,html-keyboard-response,7,16742,0.0-1.0-0.3,,,,,,,
9,1646729312287,08/03/2022 08:48:32,1646729312236,1,08/03/2022 09:48:32,73265,15,task-nzlp,,20178135,BLIND,5972214,Intro Experiment: General explanations,complete,,,computer,Desktop or Laptop,Windows 10,Edge 98.0.1108.62,3440x1440,3276x1266,Part 1 completed,Colors_Only_Dutch,6,,Part 1 completed,Accuracy_level_0.55,373.7000000476837,/task/320040/6/asset/yellow.png,,,,image-keyboard-response,8,18249,0.0-1.0-1.3,,1,test, ,0.5571428571428572,1,0.1084
10,1646729312400,08/03/2022 08:48:32,1646729312346,1,08/03/2022 09:48:32,73265,15,task-nzlp,,20178135,BLIND,5972214,Intro Experiment: General explanations,complete,,,computer,Desktop or Laptop,Windows 10,Edge 98.0.1108.62,3440x1440,3276x1266,Part 1 completed,Colors_Only_Dutch,6,,Part 1 completed,Accuracy_level_0.55,,"<div style=""font-size:60px;"">  </div>",,,,html-keyboard-response,9,18359,0.0-1.0-0.4,,,,,,,
11,1646729313916,08/03/2022 08:48:33,1646729313853,1,08/03/2022 09:48:33,73265,15,task-nzlp,,20178135,BLIND,5972214,Intro Experiment: General explanations,complete,,,computer,Desktop or Laptop,Windows 10,Edge 98.0.1108.62,3440x1440,3276x1266,Part 1 completed,Colors_Only_Dutch,6,,Part 1 completed,Accuracy_level_0.55,,/task/320040/6/asset/black.png,,,,image-keyboard-response,10,19866,0.0-1.0-1.4,,,test,,0.5777777777777778,1,0.13535
12,1646729314008,08/03/2022 08:48:34,1646729313962,1,08/03/2022 09:48:33,73265,15,task-nzlp,,20178135,BLIND,5972214,Intro Experiment: General explanations,complete,,,computer,Desktop or Laptop,Windows 10,Edge 98.0.1108.62,3440x1440,3276x1266,Part 1 completed,Colors_Only_Dutch,6,,Part 1 completed,Accuracy_level_0.55,,"<div style=""font-size:60px;"">  </div>",,,,html-keyboard-response,11,19975,0.0-1.0-0.5,,,,,,,
13,1646729315524,08/03/2022 08:48:35,1646729315467,1,08/03/2022 09:48:35,73265,15,task-nzlp,,20178135,BLIND,5972214,Intro Experiment: General explanations,complete,,,computer,Desktop or Laptop,Windows 10,Edge 98.0.1108.62,3440x1440,3276x1266,Part 1 completed,Colors_Only_Dutch,6,,Part 1 completed,Accuracy_level_0.55,512.3000001907349,/task/320040/6/asset/black.png,,,,image-keyboard-response,12,21479,0.0-1.0-1.5,,1,test, ,0.5909090909090909,1,0.16225
14,1646729315848,08/03/2022 08:48:35,1646729315575,1,08/03/2022 09:48:35,73265,15,task-nzlp,,20178135,BLIND,5972214,Intro Experiment: General explanations,complete,,,computer,Desktop or Laptop,Windows 10,Edge 98.0.1108.62,3440x1440,3276x1266,Part 1 completed,Colors_Only_Dutch,6,,Part 1 completed,Accuracy_level_0.55,,"<div style=""font-size:60px;"">  </div>",,,,html-keyboard-response,13,21588,0.0-1.0-0.6,,,,,,,
15,1646729317150,08/03/2022 08:48:37,1646729317087,1,08/03/2022 09:48:37,73265,15,task-nzlp,,20178135,BLIND,5972214,Intro Experiment: General explanations,complete,,,computer,Desktop or Laptop,Windows 10,Edge 98.0.1108.62,3440x1440,3276x1266,Part 1 completed,Colors_Only_Dutch,6,,Part 1 completed,Accuracy_level_0.55,464.7999999523163,/task/320040/6/asset/black.png,,,,image-keyboard-response,14,23099,0.0-1.0-1.6,,1,test, ,0.6,1,0.18925
16,1646729317244,08/03/2022 08:48:37,1646729317194,1,08/03/2022 09:48:37,73265,15,task-nzlp,,20178135,BLIND,5972214,Intro Experiment: General explanations,complete,,,computer,Desktop or Laptop,Windows 10,Edge 98.0.1108.62,3440x1440,3276x1266,Part 1 completed,Colors_Only_Dutch,6,,Part 1 completed,Accuracy_level_0.55,,"<div style=""font-size:60px;"">  </div>",,,,html-keyboard-response,15,23207,0.0-1.0-0.7,,,,,,,
17,1646729318757,08/03/2022 08:48:38,1646729318707,1,08/03/2022 09:48:38,73265,15,task-nzlp,,20178135,BLIND,5972214,Intro Experiment: General explanations,complete,,,computer,Desktop or Laptop,Windows 10,Edge 98.0.1108.62,3440x1440,3276x1266,Part 1 completed,Colors_Only_Dutch,6,,Part 1 completed,Accuracy_level_0.55,,/task/320040/6/asset/blue.png,,,,image-keyboard-response,16,24720,0.0-1.0-1.7,,,test,,0.6066666666666667,1,0.21625
1,1645270915743,19/02/2022 11:41:55,1645270915603,1,19/02/2022 12:41:55,73265,15,task-nzlp,,19598191,BLIND,5811722,Intro Experiment: General explanations,complete,,,computer,Desktop or Laptop,Mac OS 10.15.7,Edge 97.0.1072.76,1440x900,1440x736,Part 1 completed,Colors_Only_Dutch,6,,Part 1 completed,Accuracy_level_0.55,11203.699999809265,,,,,instructions,0,11207,0.0-0.0,,,,,,,
2,1645270915850,19/02/2022 11:41:55,1645270915722,1,19/02/2022 12:41:55,73265,15,task-nzlp,,19598191,BLIND,5811722,Intro Experiment: General explanations,complete,,,computer,Desktop or Laptop,Mac OS 10.15.7,Edge 97.0.1072.76,1440x900,1440x736,Part 1 completed,Colors_Only_Dutch,6,,Part 1 completed,Accuracy_level_0.55,,"<div style=""font-size:60px;"">  </div>",,,,html-keyboard-response,1,11327,0.0-1.0-0.0,,,,,,,
3,1645270917284,19/02/2022 11:41:57,1645270917231,1,19/02/2022 12:41:57,73265,15,task-nzlp,,19598191,BLIND,5811722,Intro Experiment: General explanations,complete,,,computer,Desktop or Laptop,Mac OS 10.15.7,Edge 97.0.1072.76,1440x900,1440x736,Part 1 completed,Colors_Only_Dutch,6,,Part 1 completed,Accuracy_level_0.55,667.0999999046326,/task/320040/6/asset/yellow.png,,,,image-keyboard-response,2,12835,0.0-1.0-1.0,,1,test, ,1.3,1,0.027133333333333332
4,1645270917399,19/02/2022 11:41:57,1645270917336,1,19/02/2022 12:41:57,73265,15,task-nzlp,,19598191,BLIND,5811722,Intro Experiment: General explanations,complete,,,computer,Desktop or Laptop,Mac OS 10.15.7,Edge 97.0.1072.76,1440x900,1440x736,Part 1 completed,Colors_Only_Dutch,6,,Part 1 completed,Accuracy_level_0.55,,"<div style=""font-size:60px;"">  </div>",,,,html-keyboard-response,3,12941,0.0-1.0-0.1,,,,,,,
5,1645270918909,19/02/2022 11:41:58,1645270918846,1,19/02/2022 12:41:58,73265,15,task-nzlp,,19598191,BLIND,5811722,Intro Experiment: General explanations,complete,,,computer,Desktop or Laptop,Mac OS 10.15.7,Edge 97.0.1072.76,1440x900,1440x736,Part 1 completed,Colors_Only_Dutch,6,,Part 1 completed,Accuracy_level_0.55,394.7999999523163,/task/320040/6/asset/yellow.png,,,,image-keyboard-response,4,14450,0.0-1.0-1.1,,1,test, ,0.8666666666666667,1,0.05405
6,1645270919004,19/02/2022 11:41:59,1645270918951,1,19/02/2022 12:41:58,73265,15,task-nzlp,,19598191,BLIND,5811722,Intro Experiment: General explanations,complete,,,computer,Desktop or Laptop,Mac OS 10.15.7,Edge 97.0.1072.76,1440x900,1440x736,Part 1 completed,Colors_Only_Dutch,6,,Part 1 completed,Accuracy_level_0.55,,"<div style=""font-size:60px;"">  </div>",,,,html-keyboard-response,5,14556,0.0-1.0-0.2,,,,,,,
7,1645270920508,19/02/2022 11:42:00,1645270920456,1,19/02/2022 12:42:00,73265,15,task-nzlp,,19598191,BLIND,5811722,Intro Experiment: General explanations,complete,,,computer,Desktop or Laptop,Mac OS 10.15.7,Edge 97.0.1072.76,1440x900,1440x736,Part 1 completed,Colors_Only_Dutch,6,,Part 1 completed,Accuracy_level_0.55,,/task/320040/6/asset/green.png,,,,image-keyboard-response,6,16061,0.0-1.0-1.2,,,test,,0.78,1,0.08088333333333333
8,1645270920714,19/02/2022 11:42:00,1645270920560,1,19/02/2022 12:42:00,73265,15,task-nzlp,,19598191,BLIND,5811722,Intro Experiment: General explanations,complete,,,computer,Desktop or Laptop,Mac OS 10.15.7,Edge 97.0.1072.76,1440x900,1440x736,Part 1 completed,Colors_Only_Dutch,6,,Part 1 completed,Accuracy_level_0.55,,"<div style=""font-size:60px;"">  </div>",,,,html-keyboard-response,7,16165,0.0-1.0-0.3,,,,,,,
9,1645270922120,19/02/2022 11:42:02,1645270922070,1,19/02/2022 12:42:02,73265,15,task-nzlp,,19598191,BLIND,5811722,Intro Experiment: General explanations,complete,,,computer,Desktop or Laptop,Mac OS 10.15.7,Edge 97.0.1072.76,1440x900,1440x736,Part 1 completed,Colors_Only_Dutch,6,,Part 1 completed,Accuracy_level_0.55,374.39999985694885,/task/320040/6/asset/green.png,,,,image-keyboard-response,8,17675,0.0-1.0-1.3,,1,test, ,0.7428571428571429,1,0.10778333333333333
10,1645270922222,19/02/2022 11:42:02,1645270922176,1,19/02/2022 12:42:02,73265,15,task-nzlp,,19598191,BLIND,5811722,Intro Experiment: General explanations,complete,,,computer,Desktop or Laptop,Mac OS 10.15.7,Edge 97.0.1072.76,1440x900,1440x736,Part 1 completed,Colors_Only_Dutch,6,,Part 1 completed,Accuracy_level_0.55,,"<div style=""font-size:60px;"">  </div>",,,,html-keyboard-response,9,17781,0.0-1.0-0.4,,,,,,,
11,1645270923723,19/02/2022 11:42:03,1645270923686,1,19/02/2022 12:42:03,73265,15,task-nzlp,,19598191,BLIND,5811722,Intro Experiment: General explanations,complete,,,computer,Desktop or Laptop,Mac OS 10.15.7,Edge 97.0.1072.76,1440x900,1440x736,Part 1 completed,Colors_Only_Dutch,6,,Part 1 completed,Accuracy_level_0.55,315.7999999523163,/task/320040/6/asset/green.png,,,,image-keyboard-response,10,19290,0.0-1.0-1.4,,1,test, ,0.7222222222222222,1,0.13471666666666668
12,1645270923842,19/02/2022 11:42:03,1645270923792,1,19/02/2022 12:42:03,73265,15,task-nzlp,,19598191,BLIND,5811722,Intro Experiment: General explanations,complete,,,computer,Desktop or Laptop,Mac OS 10.15.7,Edge 97.0.1072.76,1440x900,1440x736,Part 1 completed,Colors_Only_Dutch,6,,Part 1 completed,Accuracy_level_0.55,,"<div style=""font-size:60px;"">  </div>",,,,html-keyboard-response,11,19396,0.0-1.0-0.5,,,,,,,
