Event Index,UTC Timestamp,UTC Date,Local Timestamp,Local Timezone,Local Date,Experiment ID,Experiment Version,Tree Node Key,Repeat Key,Schedule ID,Participant Public ID,Participant Private ID,Participant Starting Group,Participant Status,Participant Completion Code,Participant External Session ID,Participant Device Type,Participant Device,Participant OS,Participant Browser,Participant Monitor Size,Participant Viewport Size,Checkpoint,Task Name,Task Version,checkpoint-yiku,checkpoint-gn26,randomiser-2vg5,Reaction Time,Stimulus,Key Press,Test Part,Correct Response,Trial Type,Trial Index,Time Elapsed,Internal Node ID,Correct,match,phase,correct_resp,prop_correct,accuracy_color_trial,minutes
1,1644937121736,15/02/2022 14:58:41,1644937126873,1,15/02/2022 15:58:46,73265,15,task-59ft,,19463539,BLIND,5768707,Intro Experiment: General explanations,complete,,,computer,Desktop or Laptop,Chromium OS 14324.80.0,Chrome 97.0.4692.102,1080x675,1620x786,Part 1 completed,Colors_Only_Dutch,6,Part 1 completed,,Accuracy_level_1,5352.9000000003725,,,,,instructions,0,5364,0.0-0.0,,,,,,,
2,1644937121867,15/02/2022 14:58:41,1644937127015,1,15/02/2022 15:58:47,73265,15,task-59ft,,19463539,BLIND,5768707,Intro Experiment: General explanations,complete,,,computer,Desktop or Laptop,Chromium OS 14324.80.0,Chrome 97.0.4692.102,1080x675,1620x786,Part 1 completed,Colors_Only_Dutch,6,Part 1 completed,,Accuracy_level_1,,"<div style=""font-size:60px;"">  </div>",,,,html-keyboard-response,1,5507,0.0-1.0-0.0,,,,,,,
3,1644937123321,15/02/2022 14:58:43,1644937128531,1,15/02/2022 15:58:48,73265,15,task-59ft,,19463539,BLIND,5768707,Intro Experiment: General explanations,complete,,,computer,Desktop or Laptop,Chromium OS 14324.80.0,Chrome 97.0.4692.102,1080x675,1620x786,Part 1 completed,Colors_Only_Dutch,6,Part 1 completed,,Accuracy_level_1,,/task/320040/6/asset/red.png,,,,image-keyboard-response,2,7021,0.0-1.0-1.0,,,test,,1.3,1,0.02765
4,1644937123415,15/02/2022 14:58:43,1644937128644,1,15/02/2022 15:58:48,73265,15,task-59ft,,19463539,BLIND,5768707,Intro Experiment: General explanations,complete,,,computer,Desktop or Laptop,Chromium OS 14324.80.0,Chrome 97.0.4692.102,1080x675,1620x786,Part 1 completed,Colors_Only_Dutch,6,Part 1 completed,,Accuracy_level_1,,"<div style=""font-size:60px;"">  </div>",,,,html-keyboard-response,3,7137,0.0-1.0-0.1,,,,,,,
5,1644937125408,15/02/2022 14:58:45,1644937130156,1,15/02/2022 15:58:50,73265,15,task-59ft,,19463539,BLIND,5768707,Intro Experiment: General explanations,complete,,,computer,Desktop or Laptop,Chromium OS 14324.80.0,Chrome 97.0.4692.102,1080x675,1620x786,Part 1 completed,Colors_Only_Dutch,6,Part 1 completed,,Accuracy_level_1,,/task/320040/6/asset/black.png,,,,image-keyboard-response,4,8648,0.0-1.0-1.1,,,test,,0.8666666666666667,1,0.054733333333333335
6,1644937125517,15/02/2022 14:58:45,1644937130267,1,15/02/2022 15:58:50,73265,15,task-59ft,,19463539,BLIND,5768707,Intro Experiment: General explanations,complete,,,computer,Desktop or Laptop,Chromium OS 14324.80.0,Chrome 97.0.4692.102,1080x675,1620x786,Part 1 completed,Colors_Only_Dutch,6,Part 1 completed,,Accuracy_level_1,,"<div style=""font-size:60px;"">  </div>",,,,html-keyboard-response,5,8760,0.0-1.0-0.2,,,,,,,
7,1644937126577,15/02/2022 14:58:46,1644937131774,1,15/02/2022 15:58:51,73265,15,task-59ft,,19463539,BLIND,5768707,Intro Experiment: General explanations,complete,,,computer,Desktop or Laptop,Chromium OS 14324.80.0,Chrome 97.0.4692.102,1080x675,1620x786,Part 1 completed,Colors_Only_Dutch,6,Part 1 completed,,Accuracy_level_1,,/task/320040/6/asset/blue.png,,,,image-keyboard-response,6,10267,0.0-1.0-1.2,,,test,,0.78,1,0.0817
8,1644937126658,15/02/2022 14:58:46,1644937131886,1,15/02/2022 15:58:51,73265,15,task-59ft,,19463539,BLIND,5768707,Intro Experiment: General explanations,complete,,,computer,Desktop or Laptop,Chromium OS 14324.80.0,Chrome 97.0.4692.102,1080x675,1620x786,Part 1 completed,Colors_Only_Dutch,6,Part 1 completed,,Accuracy_level_1,,"<div style=""font-size:60px;"">  </div>",,,,html-keyboard-response,7,10379,0.0-1.0-0.3,,,,,,,
9,1644937128190,15/02/2022 14:58:48,1644937133401,1,15/02/2022 15:58:53,73265,15,task-59ft,,19463539,BLIND,5768707,Intro Experiment: General explanations,complete,,,computer,Desktop or Laptop,Chromium OS 14324.80.0,Chrome 97.0.4692.102,1080x675,1620x786,Part 1 completed,Colors_Only_Dutch,6,Part 1 completed,,Accuracy_level_1,370.5,/task/320040/6/asset/blue.png,,,,image-keyboard-response,8,11893,0.0-1.0-1.3,,1,test, ,0.7428571428571429,1,0.10881666666666667
10,1644937128314,15/02/2022 14:58:48,1644937133511,1,15/02/2022 15:58:53,73265,15,task-59ft,,19463539,BLIND,5768707,Intro Experiment: General explanations,complete,,,computer,Desktop or Laptop,Chromium OS 14324.80.0,Chrome 97.0.4692.102,1080x675,1620x786,Part 1 completed,Colors_Only_Dutch,6,Part 1 completed,,Accuracy_level_1,,"<div style=""font-size:60px;"">  </div>",,,,html-keyboard-response,9,12003,0.0-1.0-0.4,,,,,,,
11,1644937129814,15/02/2022 14:58:49,1644937135023,1,15/02/2022 15:58:55,73265,15,task-59ft,,19463539,BLIND,5768707,Intro Experiment: General explanations,complete,,,computer,Desktop or Laptop,Chromium OS 14324.80.0,Chrome 97.0.4692.102,1080x675,1620x786,Part 1 completed,Colors_Only_Dutch,6,Part 1 completed,,Accuracy_level_1,,/task/320040/6/asset/pink.png,,,,image-keyboard-response,10,13515,0.0-1.0-1.4,,,test,,0.7222222222222222,1,0.13585
12,1644937129913,15/02/2022 14:58:49,1644937135134,1,15/02/2022 15:58:55,73265,15,task-59ft,,19463539,BLIND,5768707,Intro Experiment: General explanations,complete,,,computer,Desktop or Laptop,Chromium OS 14324.80.0,Chrome 97.0.4692.102,1080x675,1620x786,Part 1 completed,Colors_Only_Dutch,6,Part 1 completed,,Accuracy_level_1,,"<div style=""font-size:60px;"">  </div>",,,,html-keyboard-response,11,13627,0.0-1.0-0.5,,,,,,,
13,1644937131425,15/02/2022 14:58:51,1644937136643,1,15/02/2022 15:58:56,73265,15,task-59ft,,19463539,BLIND,5768707,Intro Experiment: General explanations,complete,,,computer,Desktop or Laptop,Chromium OS 14324.80.0,Chrome 97.0.4692.102,1080x675,1620x786,Part 1 completed,Colors_Only_Dutch,6,Part 1 completed,,Accuracy_level_1,404.7999999988824,/task/320040/6/asset/pink.png,,,,image-keyboard-response,12,15135,0.0-1.0-1.5,,1,test, ,0.7090909090909091,1,0.16285
14,1644937131635,15/02/2022 14:58:51,1644937136753,1,15/02/2022 15:58:56,73265,15,task-59ft,,19463539,BLIND,5768707,Intro Experiment: General explanations,complete,,,computer,Desktop or Laptop,Chromium OS 14324.80.0,Chrome 97.0.4692.102,1080x675,1620x786,Part 1 completed,Colors_Only_Dutch,6,Part 1 completed,,Accuracy_level_1,,"<div style=""font-size:60px;"">  </div>",,,,html-keyboard-response,13,15245,0.0-1.0-0.6,,,,,,,
15,1644937133050,15/02/2022 14:58:53,1644937138266,1,15/02/2022 15:58:58,73265,15,task-59ft,,19463539,BLIND,5768707,Intro Experiment: General explanations,complete,,,computer,Desktop or Laptop,Chromium OS 14324.80.0,Chrome 97.0.4692.102,1080x675,1620x786,Part 1 completed,Colors_Only_Dutch,6,Part 1 completed,,Accuracy_level_1,478.6000000014901,/task/320040/6/asset/pink.png,,,,image-keyboard-response,14,16758,0.0-1.0-1.6,,1,test, ,0.7,1,0.1899
16,1644937133151,15/02/2022 14:58:53,1644937138382,1,15/02/2022 15:58:58,73265,15,task-59ft,,19463539,BLIND,5768707,Intro Experiment: General explanations,complete,,,computer,Desktop or Laptop,Chromium OS 14324.80.0,Chrome 97.0.4692.102,1080x675,1620x786,Part 1 completed,Colors_Only_Dutch,6,Part 1 completed,,Accuracy_level_1,,"<div style=""font-size:60px;"">  </div>",,,,html-keyboard-response,15,16874,0.0-1.0-0.7,,,,,,,
17,1644937134698,15/02/2022 14:58:54,1644937139895,1,15/02/2022 15:58:59,73265,15,task-59ft,,19463539,BLIND,5768707,Intro Experiment: General explanations,complete,,,computer,Desktop or Laptop,Chromium OS 14324.80.0,Chrome 97.0.4692.102,1080x675,1620x786,Part 1 completed,Colors_Only_Dutch,6,Part 1 completed,,Accuracy_level_1,401.19999999925494,/task/320040/6/asset/pink.png,,,,image-keyboard-response,16,18388,0.0-1.0-1.7,,1,test, ,0.6933333333333334,1,0.21705
1,1644955035144,15/02/2022 19:57:15,1644955035001,1,15/02/2022 20:57:15,73265,15,task-59ft,,19475900,BLIND,5768964,Intro Experiment: General explanations,complete,,,computer,Desktop or Laptop,Mac OS 10.15.6,Safari 14.0.2,1440x900,1440x848,Part 1 completed,Colors_Only_Dutch,6,Part 1 completed,,Accuracy_level_1,101745,,,,,instructions,0,101745,0.0-0.0,,,,,,,
2,1644955035270,15/02/2022 19:57:15,1644955035106,1,15/02/2022 20:57:15,73265,15,task-59ft,,19475900,BLIND,5768964,Intro Experiment: General explanations,complete,,,computer,Desktop or Laptop,Mac OS 10.15.6,Safari 14.0.2,1440x900,1440x848,Part 1 completed,Colors_Only_Dutch,6,Part 1 completed,,Accuracy_level_1,,"<div style=""font-size:60px;"">  </div>",,,,html-keyboard-response,1,101850,0.0-1.0-0.0,,,,,,,
3,1644955036709,15/02/2022 19:57:16,1644955036613,1,15/02/2022 20:57:16,73265,15,task-59ft,,19475900,BLIND,5768964,Intro Experiment: General explanations,complete,,,computer,Desktop or Laptop,Mac OS 10.15.6,Safari 14.0.2,1440x900,1440x848,Part 1 completed,Colors_Only_Dutch,6,Part 1 completed,,Accuracy_level_1,,/task/320040/6/asset/white.png,,,,image-keyboard-response,2,103356,0.0-1.0-1.0,,1,test, ,0,,0.026866666666666667
4,1644955036816,15/02/2022 19:57:16,1644955036719,1,15/02/2022 20:57:16,73265,15,task-59ft,,19475900,BLIND,5768964,Intro Experiment: General explanations,complete,,,computer,Desktop or Laptop,Mac OS 10.15.6,Safari 14.0.2,1440x900,1440x848,Part 1 completed,Colors_Only_Dutch,6,Part 1 completed,,Accuracy_level_1,,"<div style=""font-size:60px;"">  </div>",,,,html-keyboard-response,3,103463,0.0-1.0-0.1,,,,,,,
5,1644955038318,15/02/2022 19:57:18,1644955038225,1,15/02/2022 20:57:18,73265,15,task-59ft,,19475900,BLIND,5768964,Intro Experiment: General explanations,complete,,,computer,Desktop or Laptop,Mac OS 10.15.6,Safari 14.0.2,1440x900,1440x848,Part 1 completed,Colors_Only_Dutch,6,Part 1 completed,,Accuracy_level_1,803,/task/320040/6/asset/white.png,,,,image-keyboard-response,4,104969,0.0-1.0-1.1,,1,test, ,0.43333333333333335,1,0.053733333333333334
6,1644955038394,15/02/2022 19:57:18,1644955038331,1,15/02/2022 20:57:18,73265,15,task-59ft,,19475900,BLIND,5768964,Intro Experiment: General explanations,complete,,,computer,Desktop or Laptop,Mac OS 10.15.6,Safari 14.0.2,1440x900,1440x848,Part 1 completed,Colors_Only_Dutch,6,Part 1 completed,,Accuracy_level_1,,"<div style=""font-size:60px;"">  </div>",,,,html-keyboard-response,5,105074,0.0-1.0-0.2,,,,,,,
7,1644955039898,15/02/2022 19:57:19,1644955039836,1,15/02/2022 20:57:19,73265,15,task-59ft,,19475900,BLIND,5768964,Intro Experiment: General explanations,complete,,,computer,Desktop or Laptop,Mac OS 10.15.6,Safari 14.0.2,1440x900,1440x848,Part 1 completed,Colors_Only_Dutch,6,Part 1 completed,,Accuracy_level_1,585,/task/320040/6/asset/white.png,,,,image-keyboard-response,6,106580,0.0-1.0-1.2,,1,test, ,0.52,1,0.08058333333333334
8,1644955039998,15/02/2022 19:57:19,1644955039938,1,15/02/2022 20:57:19,73265,15,task-59ft,,19475900,BLIND,5768964,Intro Experiment: General explanations,complete,,,computer,Desktop or Laptop,Mac OS 10.15.6,Safari 14.0.2,1440x900,1440x848,Part 1 completed,Colors_Only_Dutch,6,Part 1 completed,,Accuracy_level_1,,"<div style=""font-size:60px;"">  </div>",,,,html-keyboard-response,7,106682,0.0-1.0-0.3,,,,,,,
9,1644955041507,15/02/2022 19:57:21,1644955041443,1,15/02/2022 20:57:21,73265,15,task-59ft,,19475900,BLIND,5768964,Intro Experiment: General explanations,complete,,,computer,Desktop or Laptop,Mac OS 10.15.6,Safari 14.0.2,1440x900,1440x848,Part 1 completed,Colors_Only_Dutch,6,Part 1 completed,,Accuracy_level_1,495,/task/320040/6/asset/white.png,,,,image-keyboard-response,8,108186,0.0-1.0-1.3,,1,test, ,0.5571428571428572,1,0.10736666666666667
10,1644955041593,15/02/2022 19:57:21,1644955041545,1,15/02/2022 20:57:21,73265,15,task-59ft,,19475900,BLIND,5768964,Intro Experiment: General explanations,complete,,,computer,Desktop or Laptop,Mac OS 10.15.6,Safari 14.0.2,1440x900,1440x848,Part 1 completed,Colors_Only_Dutch,6,Part 1 completed,,Accuracy_level_1,,"<div style=""font-size:60px;"">  </div>",,,,html-keyboard-response,9,108289,0.0-1.0-0.4,,,,,,,
11,1644955043101,15/02/2022 19:57:23,1644955043048,1,15/02/2022 20:57:23,73265,15,task-59ft,,19475900,BLIND,5768964,Intro Experiment: General explanations,complete,,,computer,Desktop or Laptop,Mac OS 10.15.6,Safari 14.0.2,1440x900,1440x848,Part 1 completed,Colors_Only_Dutch,6,Part 1 completed,,Accuracy_level_1,,/task/320040/6/asset/blue.png,,,,image-keyboard-response,10,109792,0.0-1.0-1.4,,,test,,0.5777777777777778,1,0.13411666666666666
12,1644955043205,15/02/2022 19:57:23,1644955043151,1,15/02/2022 20:57:23,73265,15,task-59ft,,19475900,BLIND,5768964,Intro Experiment: General explanations,complete,,,computer,Desktop or Laptop,Mac OS 10.15.6,Safari 14.0.2,1440x900,1440x848,Part 1 completed,Colors_Only_Dutch,6,Part 1 completed,,Accuracy_level_1,,"<div style=""font-size:60px;"">  </div>",,,,html-keyboard-response,11,109895,0.0-1.0-0.5,,,,,,,
13,1644955044721,15/02/2022 19:57:24,1644955044656,1,15/02/2022 20:57:24,73265,15,task-59ft,,19475900,BLIND,5768964,Intro Experiment: General explanations,complete,,,computer,Desktop or Laptop,Mac OS 10.15.6,Safari 14.0.2,1440x900,1440x848,Part 1 completed,Colors_Only_Dutch,6,Part 1 completed,,Accuracy_level_1,1301,/task/320040/6/asset/blue.png,,,,image-keyboard-response,12,111400,0.0-1.0-1.5,,1,test, ,0.5909090909090909,1,0.16091666666666668
14,1644955044807,15/02/2022 19:57:24,1644955044762,1,15/02/2022 20:57:24,73265,15,task-59ft,,19475900,BLIND,5768964,Intro Experiment: General explanations,complete,,,computer,Desktop or Laptop,Mac OS 10.15.6,Safari 14.0.2,1440x900,1440x848,Part 1 completed,Colors_Only_Dutch,6,Part 1 completed,,Accuracy_level_1,,"<div style=""font-size:60px;"">  </div>",,,,html-keyboard-response,13,111506,0.0-1.0-0.6,,,,,,,
15,1644955046317,15/02/2022 19:57:26,1644955046268,1,15/02/2022 20:57:26,73265,15,task-59ft,,19475900,BLIND,5768964,Intro Experiment: General explanations,complete,,,computer,Desktop or Laptop,Mac OS 10.15.6,Safari 14.0.2,1440x900,1440x848,Part 1 completed,Colors_Only_Dutch,6,Part 1 completed,,Accuracy_level_1,,/task/320040/6/asset/black.png,,,,image-keyboard-response,14,113011,0.0-1.0-1.6,,,test,,0.6,1,0.18778333333333333
16,1644955046417,15/02/2022 19:57:26,1644955046370,1,15/02/2022 20:57:26,73265,15,task-59ft,,19475900,BLIND,5768964,Intro Experiment: General explanations,complete,,,computer,Desktop or Laptop,Mac OS 10.15.6,Safari 14.0.2,1440x900,1440x848,Part 1 completed,Colors_Only_Dutch,6,Part 1 completed,,Accuracy_level_1,,"<div style=""font-size:60px;"">  </div>",,,,html-keyboard-response,15,113114,0.0-1.0-0.7,,,,,,,
17,1644955047935,15/02/2022 19:57:27,1644955047877,1,15/02/2022 20:57:27,73265,15,task-59ft,,19475900,BLIND,5768964,Intro Experiment: General explanations,complete,,,computer,Desktop or Laptop,Mac OS 10.15.6,Safari 14.0.2,1440x900,1440x848,Part 1 completed,Colors_Only_Dutch,6,Part 1 completed,,Accuracy_level_1,453,/task/320040/6/asset/black.png,,,,image-keyboard-response,16,114620,0.0-1.0-1.7,,1,test, ,0.6066666666666667,1,0.2146
1,1645001322694,16/02/2022 08:48:42,1645001322525,1,16/02/2022 09:48:42,73265,15,task-59ft,,19485647,BLIND,5773932,Intro Experiment: General explanations,complete,,,computer,Desktop or Laptop,Mac OS 10.15.7,Chrome 98.0.4758.80,1440x900,1440x789,Part 1 completed,Colors_Only_Dutch,6,Part 1 completed,,Accuracy_level_1,18389.39999999851,,,,,instructions,0,18393,0.0-0.0,,,,,,,
2,1645001322794,16/02/2022 08:48:42,1645001322651,1,16/02/2022 09:48:42,73265,15,task-59ft,,19485647,BLIND,5773932,Intro Experiment: General explanations,complete,,,computer,Desktop or Laptop,Mac OS 10.15.7,Chrome 98.0.4758.80,1440x900,1440x789,Part 1 completed,Colors_Only_Dutch,6,Part 1 completed,,Accuracy_level_1,,"<div style=""font-size:60px;"">  </div>",,,,html-keyboard-response,1,18520,0.0-1.0-0.0,,,,,,,
3,1645001324247,16/02/2022 08:48:44,1645001324154,1,16/02/2022 09:48:44,73265,15,task-59ft,,19485647,BLIND,5773932,Intro Experiment: General explanations,complete,,,computer,Desktop or Laptop,Mac OS 10.15.7,Chrome 98.0.4758.80,1440x900,1440x789,Part 1 completed,Colors_Only_Dutch,6,Part 1 completed,,Accuracy_level_1,,/task/320040/6/asset/black.png,,,,image-keyboard-response,2,20023,0.0-1.0-1.0,,1,test, ,0,,0.027166666666666665
4,1645001324349,16/02/2022 08:48:44,1645001324257,1,16/02/2022 09:48:44,73265,15,task-59ft,,19485647,BLIND,5773932,Intro Experiment: General explanations,complete,,,computer,Desktop or Laptop,Mac OS 10.15.7,Chrome 98.0.4758.80,1440x900,1440x789,Part 1 completed,Colors_Only_Dutch,6,Part 1 completed,,Accuracy_level_1,,"<div style=""font-size:60px;"">  </div>",,,,html-keyboard-response,3,20125,0.0-1.0-0.1,,,,,,,
5,1645001325839,16/02/2022 08:48:45,1645001325762,1,16/02/2022 09:48:45,73265,15,task-59ft,,19485647,BLIND,5773932,Intro Experiment: General explanations,complete,,,computer,Desktop or Laptop,Mac OS 10.15.7,Chrome 98.0.4758.80,1440x900,1440x789,Part 1 completed,Colors_Only_Dutch,6,Part 1 completed,,Accuracy_level_1,514.0999999940395,/task/320040/6/asset/black.png,,,,image-keyboard-response,4,21630,0.0-1.0-1.1,,1,test, ,0.43333333333333335,1,0.05396666666666667
6,1645001325935,16/02/2022 08:48:45,1645001325863,1,16/02/2022 09:48:45,73265,15,task-59ft,,19485647,BLIND,5773932,Intro Experiment: General explanations,complete,,,computer,Desktop or Laptop,Mac OS 10.15.7,Chrome 98.0.4758.80,1440x900,1440x789,Part 1 completed,Colors_Only_Dutch,6,Part 1 completed,,Accuracy_level_1,,"<div style=""font-size:60px;"">  </div>",,,,html-keyboard-response,5,21732,0.0-1.0-0.2,,,,,,,
7,1645001327443,16/02/2022 08:48:47,1645001327365,1,16/02/2022 09:48:47,73265,15,task-59ft,,19485647,BLIND,5773932,Intro Experiment: General explanations,complete,,,computer,Desktop or Laptop,Mac OS 10.15.7,Chrome 98.0.4758.80,1440x900,1440x789,Part 1 completed,Colors_Only_Dutch,6,Part 1 completed,,Accuracy_level_1,,/task/320040/6/asset/pink.png,,,,image-keyboard-response,6,23234,0.0-1.0-1.2,,,test,,0.52,1,0.08068333333333333
8,1645001327536,16/02/2022 08:48:47,1645001327468,1,16/02/2022 09:48:47,73265,15,task-59ft,,19485647,BLIND,5773932,Intro Experiment: General explanations,complete,,,computer,Desktop or Laptop,Mac OS 10.15.7,Chrome 98.0.4758.80,1440x900,1440x789,Part 1 completed,Colors_Only_Dutch,6,Part 1 completed,,Accuracy_level_1,,"<div style=""font-size:60px;"">  </div>",,,,html-keyboard-response,7,23337,0.0-1.0-0.3,,,,,,,
9,1645001329039,16/02/2022 08:48:49,1645001328972,1,16/02/2022 09:48:48,73265,15,task-59ft,,19485647,BLIND,5773932,Intro Experiment: General explanations,complete,,,computer,Desktop or Laptop,Mac OS 10.15.7,Chrome 98.0.4758.80,1440x900,1440x789,Part 1 completed,Colors_Only_Dutch,6,Part 1 completed,,Accuracy_level_1,471,/task/320040/6/asset/pink.png,,,,image-keyboard-response,8,24841,0.0-1.0-1.3,,1,test, ,0.5571428571428572,1,0.10746666666666667
10,1645001329139,16/02/2022 08:48:49,1645001329074,1,16/02/2022 09:48:49,73265,15,task-59ft,,19485647,BLIND,5773932,Intro Experiment: General explanations,complete,,,computer,Desktop or Laptop,Mac OS 10.15.7,Chrome 98.0.4758.80,1440x900,1440x789,Part 1 completed,Colors_Only_Dutch,6,Part 1 completed,,Accuracy_level_1,,"<div style=""font-size:60px;"">  </div>",,,,html-keyboard-response,9,24943,0.0-1.0-0.4,,,,,,,
11,1645001330648,16/02/2022 08:48:50,1645001330577,1,16/02/2022 09:48:50,73265,15,task-59ft,,19485647,BLIND,5773932,Intro Experiment: General explanations,complete,,,computer,Desktop or Laptop,Mac OS 10.15.7,Chrome 98.0.4758.80,1440x900,1440x789,Part 1 completed,Colors_Only_Dutch,6,Part 1 completed,,Accuracy_level_1,653.6000000014901,/task/320040/6/asset/pink.png,,,,image-keyboard-response,10,26446,0.0-1.0-1.4,,1,test, ,0.5777777777777778,1,0.13421666666666668
12,1645001330747,16/02/2022 08:48:50,1645001330681,1,16/02/2022 09:48:50,73265,15,task-59ft,,19485647,BLIND,5773932,Intro Experiment: General explanations,complete,,,computer,Desktop or Laptop,Mac OS 10.15.7,Chrome 98.0.4758.80,1440x900,1440x789,Part 1 completed,Colors_Only_Dutch,6,Part 1 completed,,Accuracy_level_1,,"<div style=""font-size:60px;"">  </div>",,,,html-keyboard-response,11,26550,0.0-1.0-0.5,,,,,,,
13,1645001332263,16/02/2022 08:48:52,1645001332188,1,16/02/2022 09:48:52,73265,15,task-59ft,,19485647,BLIND,5773932,Intro Experiment: General explanations,complete,,,computer,Desktop or Laptop,Mac OS 10.15.7,Chrome 98.0.4758.80,1440x900,1440x789,Part 1 completed,Colors_Only_Dutch,6,Part 1 completed,,Accuracy_level_1,,/task/320040/6/asset/black.png,,,,image-keyboard-response,12,28057,0.0-1.0-1.5,,,test,,0.5909090909090909,1,0.16106666666666666
14,1645001332360,16/02/2022 08:48:52,1645001332289,1,16/02/2022 09:48:52,73265,15,task-59ft,,19485647,BLIND,5773932,Intro Experiment: General explanations,complete,,,computer,Desktop or Laptop,Mac OS 10.15.7,Chrome 98.0.4758.80,1440x900,1440x789,Part 1 completed,Colors_Only_Dutch,6,Part 1 completed,,Accuracy_level_1,,"<div style=""font-size:60px;"">  </div>",,,,html-keyboard-response,13,28158,0.0-1.0-0.6,,,,,,,
15,1645001333873,16/02/2022 08:48:53,1645001333792,1,16/02/2022 09:48:53,73265,15,task-59ft,,19485647,BLIND,5773932,Intro Experiment: General explanations,complete,,,computer,Desktop or Laptop,Mac OS 10.15.7,Chrome 98.0.4758.80,1440x900,1440x789,Part 1 completed,Colors_Only_Dutch,6,Part 1 completed,,Accuracy_level_1,437.6000000014901,/task/320040/6/asset/black.png,,,,image-keyboard-response,14,29661,0.0-1.0-1.6,,1,test, ,0.6,1,0.1878
16,1645001333961,16/02/2022 08:48:53,1645001333895,1,16/02/2022 09:48:53,73265,15,task-59ft,,19485647,BLIND,5773932,Intro Experiment: General explanations,complete,,,computer,Desktop or Laptop,Mac OS 10.15.7,Chrome 98.0.4758.80,1440x900,1440x789,Part 1 completed,Colors_Only_Dutch,6,Part 1 completed,,Accuracy_level_1,,"<div style=""font-size:60px;"">  </div>",,,,html-keyboard-response,15,29763,0.0-1.0-0.7,,,,,,,
17,1645001335483,16/02/2022 08:48:55,1645001335399,1,16/02/2022 09:48:55,73265,15,task-59ft,,19485647,BLIND,5773932,Intro Experiment: General explanations,complete,,,computer,Desktop or Laptop,Mac OS 10.15.7,Chrome 98.0.4758.80,1440x900,1440x789,Part 1 completed,Colors_Only_Dutch,6,Part 1 completed,,Accuracy_level_1,679.2999999970198,/task/320040/6/asset/black.png,,,,image-keyboard-response,16,31268,0.0-1.0-1.7,,1,test, ,0.6066666666666667,1,0.21458333333333332
1,1645004482423,16/02/2022 09:41:22,1645004482056,1,16/02/2022 10:41:22,73265,15,task-59ft,,19486641,BLIND,5774929,Intro Experiment: General explanations,complete,,,computer,Desktop or Laptop,Mac OS 10.13.6,Chrome 98.0.4758.80,1280x800,1280x721,Part 1 completed,Colors_Only_Dutch,6,Part 1 completed,,Accuracy_level_1,5422.599999999977,,,,,instructions,0,5429,0.0-0.0,,,,,,,
2,1645004482526,16/02/2022 09:41:22,1645004482185,1,16/02/2022 10:41:22,73265,15,task-59ft,,19486641,BLIND,5774929,Intro Experiment: General explanations,complete,,,computer,Desktop or Laptop,Mac OS 10.13.6,Chrome 98.0.4758.80,1280x800,1280x721,Part 1 completed,Colors_Only_Dutch,6,Part 1 completed,,Accuracy_level_1,,"<div style=""font-size:60px;"">  </div>",,,,html-keyboard-response,1,5559,0.0-1.0-0.0,,,,,,,
3,1645004483720,16/02/2022 09:41:23,1645004483689,1,16/02/2022 10:41:23,73265,15,task-59ft,,19486641,BLIND,5774929,Intro Experiment: General explanations,complete,,,computer,Desktop or Laptop,Mac OS 10.13.6,Chrome 98.0.4758.80,1280x800,1280x721,Part 1 completed,Colors_Only_Dutch,6,Part 1 completed,,Accuracy_level_1,,/task/320040/6/asset/black.png,,,,image-keyboard-response,2,7062,0.0-1.0-1.0,,,test,,1.3,1,0.027216666666666667
4,1645004484026,16/02/2022 09:41:24,1645004483794,1,16/02/2022 10:41:23,73265,15,task-59ft,,19486641,BLIND,5774929,Intro Experiment: General explanations,complete,,,computer,Desktop or Laptop,Mac OS 10.13.6,Chrome 98.0.4758.80,1280x800,1280x721,Part 1 completed,Colors_Only_Dutch,6,Part 1 completed,,Accuracy_level_1,,"<div style=""font-size:60px;"">  </div>",,,,html-keyboard-response,3,7168,0.0-1.0-0.1,,,,,,,
5,1645004485323,16/02/2022 09:41:25,1645004485301,1,16/02/2022 10:41:25,73265,15,task-59ft,,19486641,BLIND,5774929,Intro Experiment: General explanations,complete,,,computer,Desktop or Laptop,Mac OS 10.13.6,Chrome 98.0.4758.80,1280x800,1280x721,Part 1 completed,Colors_Only_Dutch,6,Part 1 completed,,Accuracy_level_1,380.0999999999767,/task/320040/6/asset/black.png,,,,image-keyboard-response,4,8675,0.0-1.0-1.1,,1,test, ,0.8666666666666667,1,0.05408333333333333
6,1645004485563,16/02/2022 09:41:25,1645004485404,1,16/02/2022 10:41:25,73265,15,task-59ft,,19486641,BLIND,5774929,Intro Experiment: General explanations,complete,,,computer,Desktop or Laptop,Mac OS 10.13.6,Chrome 98.0.4758.80,1280x800,1280x721,Part 1 completed,Colors_Only_Dutch,6,Part 1 completed,,Accuracy_level_1,,"<div style=""font-size:60px;"">  </div>",,,,html-keyboard-response,5,8778,0.0-1.0-0.2,,,,,,,
7,1645004486980,16/02/2022 09:41:26,1645004486910,1,16/02/2022 10:41:26,73265,15,task-59ft,,19486641,BLIND,5774929,Intro Experiment: General explanations,complete,,,computer,Desktop or Laptop,Mac OS 10.13.6,Chrome 98.0.4758.80,1280x800,1280x721,Part 1 completed,Colors_Only_Dutch,6,Part 1 completed,,Accuracy_level_1,361.0999999999767,/task/320040/6/asset/black.png,,,,image-keyboard-response,6,10284,0.0-1.0-1.2,,1,test, ,0.78,1,0.0809
8,1645004487064,16/02/2022 09:41:27,1645004487015,1,16/02/2022 10:41:27,73265,15,task-59ft,,19486641,BLIND,5774929,Intro Experiment: General explanations,complete,,,computer,Desktop or Laptop,Mac OS 10.13.6,Chrome 98.0.4758.80,1280x800,1280x721,Part 1 completed,Colors_Only_Dutch,6,Part 1 completed,,Accuracy_level_1,,"<div style=""font-size:60px;"">  </div>",,,,html-keyboard-response,7,10389,0.0-1.0-0.3,,,,,,,
9,1645004488526,16/02/2022 09:41:28,1645004488518,1,16/02/2022 10:41:28,73265,15,task-59ft,,19486641,BLIND,5774929,Intro Experiment: General explanations,complete,,,computer,Desktop or Laptop,Mac OS 10.13.6,Chrome 98.0.4758.80,1280x800,1280x721,Part 1 completed,Colors_Only_Dutch,6,Part 1 completed,,Accuracy_level_1,,/task/320040/6/asset/yellow.png,,,,image-keyboard-response,8,11892,0.0-1.0-1.3,,,test,,0.7428571428571429,1,0.1077
10,1645004488673,16/02/2022 09:41:28,1645004488623,1,16/02/2022 10:41:28,73265,15,task-59ft,,19486641,BLIND,5774929,Intro Experiment: General explanations,complete,,,computer,Desktop or Laptop,Mac OS 10.13.6,Chrome 98.0.4758.80,1280x800,1280x721,Part 1 completed,Colors_Only_Dutch,6,Part 1 completed,,Accuracy_level_1,,"<div style=""font-size:60px;"">  </div>",,,,html-keyboard-response,9,11997,0.0-1.0-0.4,,,,,,,
11,1645004490167,16/02/2022 09:41:30,1645004490132,1,16/02/2022 10:41:30,73265,15,task-59ft,,19486641,BLIND,5774929,Intro Experiment: General explanations,complete,,,computer,Desktop or Laptop,Mac OS 10.13.6,Chrome 98.0.4758.80,1280x800,1280x721,Part 1 completed,Colors_Only_Dutch,6,Part 1 completed,,Accuracy_level_1,430.30000000004657,/task/320040/6/asset/yellow.png,,,,image-keyboard-response,10,13506,0.0-1.0-1.4,,1,test, ,0.7222222222222222,1,0.1346
12,1645004490251,16/02/2022 09:41:30,1645004490237,1,16/02/2022 10:41:30,73265,15,task-59ft,,19486641,BLIND,5774929,Intro Experiment: General explanations,complete,,,computer,Desktop or Laptop,Mac OS 10.13.6,Chrome 98.0.4758.80,1280x800,1280x721,Part 1 completed,Colors_Only_Dutch,6,Part 1 completed,,Accuracy_level_1,,"<div style=""font-size:60px;"">  </div>",,,,html-keyboard-response,11,13611,0.0-1.0-0.5,,,,,,,
13,1645004491830,16/02/2022 09:41:31,1645004491747,1,16/02/2022 10:41:31,73265,15,task-59ft,,19486641,BLIND,5774929,Intro Experiment: General explanations,complete,,,computer,Desktop or Laptop,Mac OS 10.13.6,Chrome 98.0.4758.80,1280x800,1280x721,Part 1 completed,Colors_Only_Dutch,6,Part 1 completed,,Accuracy_level_1,366.5999999999767,/task/320040/6/asset/yellow.png,,,,image-keyboard-response,12,15121,0.0-1.0-1.5,,1,test, ,0.7090909090909091,1,0.16151666666666667
14,1645004492323,16/02/2022 09:41:32,1645004491850,1,16/02/2022 10:41:31,73265,15,task-59ft,,19486641,BLIND,5774929,Intro Experiment: General explanations,complete,,,computer,Desktop or Laptop,Mac OS 10.13.6,Chrome 98.0.4758.80,1280x800,1280x721,Part 1 completed,Colors_Only_Dutch,6,Part 1 completed,,Accuracy_level_1,,"<div style=""font-size:60px;"">  </div>",,,,html-keyboard-response,13,15224,0.0-1.0-0.6,,,,,,,
15,1645004493376,16/02/2022 09:41:33,1645004493354,1,16/02/2022 10:41:33,73265,15,task-59ft,,19486641,BLIND,5774929,Intro Experiment: General explanations,complete,,,computer,Desktop or Laptop,Mac OS 10.13.6,Chrome 98.0.4758.80,1280x800,1280x721,Part 1 completed,Colors_Only_Dutch,6,Part 1 completed,,Accuracy_level_1,,/task/320040/6/asset/pink.png,,,,image-keyboard-response,14,16728,0.0-1.0-1.6,,,test,,0.7,1,0.1883
16,1645004493495,16/02/2022 09:41:33,1645004493459,1,16/02/2022 10:41:33,73265,15,task-59ft,,19486641,BLIND,5774929,Intro Experiment: General explanations,complete,,,computer,Desktop or Laptop,Mac OS 10.13.6,Chrome 98.0.4758.80,1280x800,1280x721,Part 1 completed,Colors_Only_Dutch,6,Part 1 completed,,Accuracy_level_1,,"<div style=""font-size:60px;"">  </div>",,,,html-keyboard-response,15,16832,0.0-1.0-0.7,,,,,,,
17,1645004494985,16/02/2022 09:41:34,1645004494965,1,16/02/2022 10:41:34,73265,15,task-59ft,,19486641,BLIND,5774929,Intro Experiment: General explanations,complete,,,computer,Desktop or Laptop,Mac OS 10.13.6,Chrome 98.0.4758.80,1280x800,1280x721,Part 1 completed,Colors_Only_Dutch,6,Part 1 completed,,Accuracy_level_1,371.69999999995343,/task/320040/6/asset/pink.png,,,,image-keyboard-response,16,18338,0.0-1.0-1.7,,1,test, ,0.6933333333333334,1,0.21515
1,1645122880827,17/02/2022 18:34:40,1645122880695,1,17/02/2022 19:34:40,73265,15,task-59ft,,19547816,BLIND,5785034,Intro Experiment: General explanations,complete,,,computer,Desktop or Laptop,Mac OS 10.15.7,Safari 15.3,1440x900,1440x820,Part 1 completed,Colors_Only_Dutch,6,Part 1 completed,,Accuracy_level_1,9941,,,,,instructions,0,9943,0.0-0.0,,,,,,,
2,1645122881005,17/02/2022 18:34:41,1645122880800,1,17/02/2022 19:34:40,73265,15,task-59ft,,19547816,BLIND,5785034,Intro Experiment: General explanations,complete,,,computer,Desktop or Laptop,Mac OS 10.15.7,Safari 15.3,1440x900,1440x820,Part 1 completed,Colors_Only_Dutch,6,Part 1 completed,,Accuracy_level_1,,"<div style=""font-size:60px;"">  </div>",,,,html-keyboard-response,1,10049,0.0-1.0-0.0,,,,,,,
3,1645122882380,17/02/2022 18:34:42,1645122882305,1,17/02/2022 19:34:42,73265,15,task-59ft,,19547816,BLIND,5785034,Intro Experiment: General explanations,complete,,,computer,Desktop or Laptop,Mac OS 10.15.7,Safari 15.3,1440x900,1440x820,Part 1 completed,Colors_Only_Dutch,6,Part 1 completed,,Accuracy_level_1,,/task/320040/6/asset/blue.png,,,,image-keyboard-response,2,11553,0.0-1.0-1.0,,1,test, ,0,,0.02685
4,1645122883156,17/02/2022 18:34:43,1645122882410,1,17/02/2022 19:34:42,73265,15,task-59ft,,19547816,BLIND,5785034,Intro Experiment: General explanations,complete,,,computer,Desktop or Laptop,Mac OS 10.15.7,Safari 15.3,1440x900,1440x820,Part 1 completed,Colors_Only_Dutch,6,Part 1 completed,,Accuracy_level_1,,"<div style=""font-size:60px;"">  </div>",,,,html-keyboard-response,3,11658,0.0-1.0-0.1,,,,,,,
5,1645122883990,17/02/2022 18:34:43,1645122883923,1,17/02/2022 19:34:43,73265,15,task-59ft,,19547816,BLIND,5785034,Intro Experiment: General explanations,complete,,,computer,Desktop or Laptop,Mac OS 10.15.7,Safari 15.3,1440x900,1440x820,Part 1 completed,Colors_Only_Dutch,6,Part 1 completed,,Accuracy_level_1,713,/task/320040/6/asset/blue.png,,,,image-keyboard-response,4,13172,0.0-1.0-1.1,,1,test, ,0.43333333333333335,1,0.053816666666666665
6,1645122884095,17/02/2022 18:34:44,1645122884028,1,17/02/2022 19:34:44,73265,15,task-59ft,,19547816,BLIND,5785034,Intro Experiment: General explanations,complete,,,computer,Desktop or Laptop,Mac OS 10.15.7,Safari 15.3,1440x900,1440x820,Part 1 completed,Colors_Only_Dutch,6,Part 1 completed,,Accuracy_level_1,,"<div style=""font-size:60px;"">  </div>",,,,html-keyboard-response,5,13277,0.0-1.0-0.2,,,,,,,
7,1645122885610,17/02/2022 18:34:45,1645122885534,1,17/02/2022 19:34:45,73265,15,task-59ft,,19547816,BLIND,5785034,Intro Experiment: General explanations,complete,,,computer,Desktop or Laptop,Mac OS 10.15.7,Safari 15.3,1440x900,1440x820,Part 1 completed,Colors_Only_Dutch,6,Part 1 completed,,Accuracy_level_1,778.0000000000018,/task/320040/6/asset/blue.png,,,,image-keyboard-response,6,14783,0.0-1.0-1.2,,1,test, ,0.52,1,0.08066666666666666
8,1645122885704,17/02/2022 18:34:45,1645122885639,1,17/02/2022 19:34:45,73265,15,task-59ft,,19547816,BLIND,5785034,Intro Experiment: General explanations,complete,,,computer,Desktop or Laptop,Mac OS 10.15.7,Safari 15.3,1440x900,1440x820,Part 1 completed,Colors_Only_Dutch,6,Part 1 completed,,Accuracy_level_1,,"<div style=""font-size:60px;"">  </div>",,,,html-keyboard-response,7,14888,0.0-1.0-0.3,,,,,,,
9,1645122887220,17/02/2022 18:34:47,1645122887144,1,17/02/2022 19:34:47,73265,15,task-59ft,,19547816,BLIND,5785034,Intro Experiment: General explanations,complete,,,computer,Desktop or Laptop,Mac OS 10.15.7,Safari 15.3,1440x900,1440x820,Part 1 completed,Colors_Only_Dutch,6,Part 1 completed,,Accuracy_level_1,,/task/320040/6/asset/purple.png,,,,image-keyboard-response,8,16393,0.0-1.0-1.3,,,test,,0.5571428571428572,1,0.1075
10,1645122887324,17/02/2022 18:34:47,1645122887249,1,17/02/2022 19:34:47,73265,15,task-59ft,,19547816,BLIND,5785034,Intro Experiment: General explanations,complete,,,computer,Desktop or Laptop,Mac OS 10.15.7,Safari 15.3,1440x900,1440x820,Part 1 completed,Colors_Only_Dutch,6,Part 1 completed,,Accuracy_level_1,,"<div style=""font-size:60px;"">  </div>",,,,html-keyboard-response,9,16498,0.0-1.0-0.4,,,,,,,
11,1645122888856,17/02/2022 18:34:48,1645122888755,1,17/02/2022 19:34:48,73265,15,task-59ft,,19547816,BLIND,5785034,Intro Experiment: General explanations,complete,,,computer,Desktop or Laptop,Mac OS 10.15.7,Safari 15.3,1440x900,1440x820,Part 1 completed,Colors_Only_Dutch,6,Part 1 completed,,Accuracy_level_1,,/task/320040/6/asset/black.png,,,,image-keyboard-response,10,18003,0.0-1.0-1.4,,,test,,0.5777777777777778,1,0.13435
12,1645122888934,17/02/2022 18:34:48,1645122888859,1,17/02/2022 19:34:48,73265,15,task-59ft,,19547816,BLIND,5785034,Intro Experiment: General explanations,complete,,,computer,Desktop or Laptop,Mac OS 10.15.7,Safari 15.3,1440x900,1440x820,Part 1 completed,Colors_Only_Dutch,6,Part 1 completed,,Accuracy_level_1,,"<div style=""font-size:60px;"">  </div>",,,,html-keyboard-response,11,18108,0.0-1.0-0.5,,,,,,,
13,1645122890458,17/02/2022 18:34:50,1645122890373,1,17/02/2022 19:34:50,73265,15,task-59ft,,19547816,BLIND,5785034,Intro Experiment: General explanations,complete,,,computer,Desktop or Laptop,Mac OS 10.15.7,Safari 15.3,1440x900,1440x820,Part 1 completed,Colors_Only_Dutch,6,Part 1 completed,,Accuracy_level_1,610,/task/320040/6/asset/black.png,,,,image-keyboard-response,12,19621,0.0-1.0-1.5,,1,test, ,0.5909090909090909,1,0.16131666666666666
14,1645122890552,17/02/2022 18:34:50,1645122890477,1,17/02/2022 19:34:50,73265,15,task-59ft,,19547816,BLIND,5785034,Intro Experiment: General explanations,complete,,,computer,Desktop or Laptop,Mac OS 10.15.7,Safari 15.3,1440x900,1440x820,Part 1 completed,Colors_Only_Dutch,6,Part 1 completed,,Accuracy_level_1,,"<div style=""font-size:60px;"">  </div>",,,,html-keyboard-response,13,19726,0.0-1.0-0.6,,,,,,,
15,1645122892049,17/02/2022 18:34:52,1645122891982,1,17/02/2022 19:34:51,73265,15,task-59ft,,19547816,BLIND,5785034,Intro Experiment: General explanations,complete,,,computer,Desktop or Laptop,Mac OS 10.15.7,Safari 15.3,1440x900,1440x820,Part 1 completed,Colors_Only_Dutch,6,Part 1 completed,,Accuracy_level_1,,/task/320040/6/asset/pink.png,,,,image-keyboard-response,14,21231,0.0-1.0-1.6,,,test,,0.6,1,0.18813333333333335
16,1645122892164,17/02/2022 18:34:52,1645122892087,1,17/02/2022 19:34:52,73265,15,task-59ft,,19547816,BLIND,5785034,Intro Experiment: General explanations,complete,,,computer,Desktop or Laptop,Mac OS 10.15.7,Safari 15.3,1440x900,1440x820,Part 1 completed,Colors_Only_Dutch,6,Part 1 completed,,Accuracy_level_1,,"<div style=""font-size:60px;"">  </div>",,,,html-keyboard-response,15,21336,0.0-1.0-0.7,,,,,,,
17,1645122893675,17/02/2022 18:34:53,1645122893600,1,17/02/2022 19:34:53,73265,15,task-59ft,,19547816,BLIND,5785034,Intro Experiment: General explanations,complete,,,computer,Desktop or Laptop,Mac OS 10.15.7,Safari 15.3,1440x900,1440x820,Part 1 completed,Colors_Only_Dutch,6,Part 1 completed,,Accuracy_level_1,661,/task/320040/6/asset/pink.png,,,,image-keyboard-response,16,22849,0.0-1.0-1.7,,1,test, ,0.6066666666666667,1,0.2151
1,1646737144351,08/03/2022 10:59:04,1646737150866,1,08/03/2022 11:59:10,73265,15,task-59ft,,20182794,BLIND,5974335,Intro Experiment: General explanations,complete,,,computer,Desktop or Laptop,Windows 10,Chrome 98.0.4758.102,1366x768,1366x625,Part 1 completed,Colors_Only_Dutch,6,Part 1 completed,,Accuracy_level_1,8622.399999976158,,,,,instructions,0,8629,0.0-0.0,,,,,,,
2,1646737144463,08/03/2022 10:59:04,1646737150985,1,08/03/2022 11:59:10,73265,15,task-59ft,,20182794,BLIND,5974335,Intro Experiment: General explanations,complete,,,computer,Desktop or Laptop,Windows 10,Chrome 98.0.4758.102,1366x768,1366x625,Part 1 completed,Colors_Only_Dutch,6,Part 1 completed,,Accuracy_level_1,,"<div style=""font-size:60px;"">  </div>",,,,html-keyboard-response,1,8748,0.0-1.0-0.0,,,,,,,
3,1646737145938,08/03/2022 10:59:05,1646737152506,1,08/03/2022 11:59:12,73265,15,task-59ft,,20182794,BLIND,5974335,Intro Experiment: General explanations,complete,,,computer,Desktop or Laptop,Windows 10,Chrome 98.0.4758.102,1366x768,1366x625,Part 1 completed,Colors_Only_Dutch,6,Part 1 completed,,Accuracy_level_1,,/task/320040/6/asset/pink.png,,,,image-keyboard-response,2,10269,0.0-1.0-1.0,,1,test, ,0,,0.027333333333333334
4,1646737146046,08/03/2022 10:59:06,1646737152617,1,08/03/2022 11:59:12,73265,15,task-59ft,,20182794,BLIND,5974335,Intro Experiment: General explanations,complete,,,computer,Desktop or Laptop,Windows 10,Chrome 98.0.4758.102,1366x768,1366x625,Part 1 completed,Colors_Only_Dutch,6,Part 1 completed,,Accuracy_level_1,,"<div style=""font-size:60px;"">  </div>",,,,html-keyboard-response,3,10381,0.0-1.0-0.1,,,,,,,
5,1646737147582,08/03/2022 10:59:07,1646737154131,1,08/03/2022 11:59:14,73265,15,task-59ft,,20182794,BLIND,5974335,Intro Experiment: General explanations,complete,,,computer,Desktop or Laptop,Windows 10,Chrome 98.0.4758.102,1366x768,1366x625,Part 1 completed,Colors_Only_Dutch,6,Part 1 completed,,Accuracy_level_1,,/task/320040/6/asset/white.png,,,,image-keyboard-response,4,11895,0.0-1.0-1.1,,,test,,0.43333333333333335,1,0.05441666666666667
6,1646737147707,08/03/2022 10:59:07,1646737154242,1,08/03/2022 11:59:14,73265,15,task-59ft,,20182794,BLIND,5974335,Intro Experiment: General explanations,complete,,,computer,Desktop or Laptop,Windows 10,Chrome 98.0.4758.102,1366x768,1366x625,Part 1 completed,Colors_Only_Dutch,6,Part 1 completed,,Accuracy_level_1,,"<div style=""font-size:60px;"">  </div>",,,,html-keyboard-response,5,12005,0.0-1.0-0.2,,,,,,,
7,1646737149166,08/03/2022 10:59:09,1646737155749,1,08/03/2022 11:59:15,73265,15,task-59ft,,20182794,BLIND,5974335,Intro Experiment: General explanations,complete,,,computer,Desktop or Laptop,Windows 10,Chrome 98.0.4758.102,1366x768,1366x625,Part 1 completed,Colors_Only_Dutch,6,Part 1 completed,,Accuracy_level_1,469.3000000715256,/task/320040/6/asset/white.png,,,,image-keyboard-response,6,13512,0.0-1.0-1.2,,1,test, ,0.52,1,0.08138333333333334
8,1646737149285,08/03/2022 10:59:09,1646737155860,1,08/03/2022 11:59:15,73265,15,task-59ft,,20182794,BLIND,5974335,Intro Experiment: General explanations,complete,,,computer,Desktop or Laptop,Windows 10,Chrome 98.0.4758.102,1366x768,1366x625,Part 1 completed,Colors_Only_Dutch,6,Part 1 completed,,Accuracy_level_1,,"<div style=""font-size:60px;"">  </div>",,,,html-keyboard-response,7,13623,0.0-1.0-0.3,,,,,,,
9,1646737150801,08/03/2022 10:59:10,1646737157376,1,08/03/2022 11:59:17,73265,15,task-59ft,,20182794,BLIND,5974335,Intro Experiment: General explanations,complete,,,computer,Desktop or Laptop,Windows 10,Chrome 98.0.4758.102,1366x768,1366x625,Part 1 completed,Colors_Only_Dutch,6,Part 1 completed,,Accuracy_level_1,448.7000000476837,/task/320040/6/asset/white.png,,,,image-keyboard-response,8,15139,0.0-1.0-1.3,,1,test, ,0.5571428571428572,1,0.1085
10,1646737150901,08/03/2022 10:59:10,1646737157485,1,08/03/2022 11:59:17,73265,15,task-59ft,,20182794,BLIND,5974335,Intro Experiment: General explanations,complete,,,computer,Desktop or Laptop,Windows 10,Chrome 98.0.4758.102,1366x768,1366x625,Part 1 completed,Colors_Only_Dutch,6,Part 1 completed,,Accuracy_level_1,,"<div style=""font-size:60px;"">  </div>",,,,html-keyboard-response,9,15249,0.0-1.0-0.4,,,,,,,
11,1646737152416,08/03/2022 10:59:12,1646737159001,1,08/03/2022 11:59:19,73265,15,task-59ft,,20182794,BLIND,5974335,Intro Experiment: General explanations,complete,,,computer,Desktop or Laptop,Windows 10,Chrome 98.0.4758.102,1366x768,1366x625,Part 1 completed,Colors_Only_Dutch,6,Part 1 completed,,Accuracy_level_1,416.6999999284744,/task/320040/6/asset/white.png,,,,image-keyboard-response,10,16764,0.0-1.0-1.4,,1,test, ,0.5777777777777778,1,0.13558333333333333
12,1646737152542,08/03/2022 10:59:12,1646737159111,1,08/03/2022 11:59:19,73265,15,task-59ft,,20182794,BLIND,5974335,Intro Experiment: General explanations,complete,,,computer,Desktop or Laptop,Windows 10,Chrome 98.0.4758.102,1366x768,1366x625,Part 1 completed,Colors_Only_Dutch,6,Part 1 completed,,Accuracy_level_1,,"<div style=""font-size:60px;"">  </div>",,,,html-keyboard-response,11,16875,0.0-1.0-0.5,,,,,,,
13,1646737154040,08/03/2022 10:59:14,1646737160628,1,08/03/2022 11:59:20,73265,15,task-59ft,,20182794,BLIND,5974335,Intro Experiment: General explanations,complete,,,computer,Desktop or Laptop,Windows 10,Chrome 98.0.4758.102,1366x768,1366x625,Part 1 completed,Colors_Only_Dutch,6,Part 1 completed,,Accuracy_level_1,359.89999997615814,/task/320040/6/asset/white.png,,,,image-keyboard-response,12,18392,0.0-1.0-1.5,,1,test, ,0.5909090909090909,1,0.1627
14,1646737154151,08/03/2022 10:59:14,1646737160739,1,08/03/2022 11:59:20,73265,15,task-59ft,,20182794,BLIND,5974335,Intro Experiment: General explanations,complete,,,computer,Desktop or Laptop,Windows 10,Chrome 98.0.4758.102,1366x768,1366x625,Part 1 completed,Colors_Only_Dutch,6,Part 1 completed,,Accuracy_level_1,,"<div style=""font-size:60px;"">  </div>",,,,html-keyboard-response,13,18502,0.0-1.0-0.6,,,,,,,
15,1646737155683,08/03/2022 10:59:15,1646737162258,1,08/03/2022 11:59:22,73265,15,task-59ft,,20182794,BLIND,5974335,Intro Experiment: General explanations,complete,,,computer,Desktop or Laptop,Windows 10,Chrome 98.0.4758.102,1366x768,1366x625,Part 1 completed,Colors_Only_Dutch,6,Part 1 completed,,Accuracy_level_1,291.89999997615814,/task/320040/6/asset/white.png,,,,image-keyboard-response,14,20022,0.0-1.0-1.6,,1,test, ,0.6,1,0.18986666666666666
16,1646737155783,08/03/2022 10:59:15,1646737162369,1,08/03/2022 11:59:22,73265,15,task-59ft,,20182794,BLIND,5974335,Intro Experiment: General explanations,complete,,,computer,Desktop or Laptop,Windows 10,Chrome 98.0.4758.102,1366x768,1366x625,Part 1 completed,Colors_Only_Dutch,6,Part 1 completed,,Accuracy_level_1,,"<div style=""font-size:60px;"">  </div>",,,,html-keyboard-response,15,20132,0.0-1.0-0.7,,,,,,,
17,1646737157292,08/03/2022 10:59:17,1646737163879,1,08/03/2022 11:59:23,73265,15,task-59ft,,20182794,BLIND,5974335,Intro Experiment: General explanations,complete,,,computer,Desktop or Laptop,Windows 10,Chrome 98.0.4758.102,1366x768,1366x625,Part 1 completed,Colors_Only_Dutch,6,Part 1 completed,,Accuracy_level_1,,/task/320040/6/asset/green.png,,,,image-keyboard-response,16,21642,0.0-1.0-1.7,,,test,,0.6066666666666667,1,0.21688333333333334
1,1646861501033,09/03/2022 21:31:41,1646861501180,1,09/03/2022 22:31:41,73265,15,task-59ft,,20249759,BLIND,5973327,Intro Experiment: General explanations,complete,,,computer,Desktop or Laptop,Windows 10,Chrome 99.0.4844.51,1920x1080,1920x937,Part 1 completed,Colors_Only_Dutch,6,Part 1 completed,,Accuracy_level_1,16475.599999964237,,,,,instructions,0,16482,0.0-0.0,,,,,,,
2,1646861501126,09/03/2022 21:31:41,1646861501290,1,09/03/2022 22:31:41,73265,15,task-59ft,,20249759,BLIND,5973327,Intro Experiment: General explanations,complete,,,computer,Desktop or Laptop,Windows 10,Chrome 99.0.4844.51,1920x1080,1920x937,Part 1 completed,Colors_Only_Dutch,6,Part 1 completed,,Accuracy_level_1,,"<div style=""font-size:60px;"">  </div>",,,,html-keyboard-response,1,16591,0.0-1.0-0.0,,,,,,,
3,1646861502626,09/03/2022 21:31:42,1646861502800,1,09/03/2022 22:31:42,73265,15,task-59ft,,20249759,BLIND,5973327,Intro Experiment: General explanations,complete,,,computer,Desktop or Laptop,Windows 10,Chrome 99.0.4844.51,1920x1080,1920x937,Part 1 completed,Colors_Only_Dutch,6,Part 1 completed,,Accuracy_level_1,,/task/320040/6/asset/pink.png,,,,image-keyboard-response,2,18102,0.0-1.0-1.0,,1,test, ,0,,0.027
4,1646861502730,09/03/2022 21:31:42,1646861502907,1,09/03/2022 22:31:42,73265,15,task-59ft,,20249759,BLIND,5973327,Intro Experiment: General explanations,complete,,,computer,Desktop or Laptop,Windows 10,Chrome 99.0.4844.51,1920x1080,1920x937,Part 1 completed,Colors_Only_Dutch,6,Part 1 completed,,Accuracy_level_1,,"<div style=""font-size:60px;"">  </div>",,,,html-keyboard-response,3,18209,0.0-1.0-0.1,,,,,,,
5,1646861504235,09/03/2022 21:31:44,1646861504423,1,09/03/2022 22:31:44,73265,15,task-59ft,,20249759,BLIND,5973327,Intro Experiment: General explanations,complete,,,computer,Desktop or Laptop,Windows 10,Chrome 99.0.4844.51,1920x1080,1920x937,Part 1 completed,Colors_Only_Dutch,6,Part 1 completed,,Accuracy_level_1,710.7999999523163,/task/320040/6/asset/pink.png,,,,image-keyboard-response,4,19725,0.0-1.0-1.1,,1,test, ,0.43333333333333335,1,0.05405
6,1646861504347,09/03/2022 21:31:44,1646861504530,1,09/03/2022 22:31:44,73265,15,task-59ft,,20249759,BLIND,5973327,Intro Experiment: General explanations,complete,,,computer,Desktop or Laptop,Windows 10,Chrome 99.0.4844.51,1920x1080,1920x937,Part 1 completed,Colors_Only_Dutch,6,Part 1 completed,,Accuracy_level_1,,"<div style=""font-size:60px;"">  </div>",,,,html-keyboard-response,5,19832,0.0-1.0-0.2,,,,,,,
7,1646861505868,09/03/2022 21:31:45,1646861506047,1,09/03/2022 22:31:46,73265,15,task-59ft,,20249759,BLIND,5973327,Intro Experiment: General explanations,complete,,,computer,Desktop or Laptop,Windows 10,Chrome 99.0.4844.51,1920x1080,1920x937,Part 1 completed,Colors_Only_Dutch,6,Part 1 completed,,Accuracy_level_1,972,/task/320040/6/asset/pink.png,,,,image-keyboard-response,6,21349,0.0-1.0-1.2,,1,test, ,0.52,1,0.08111666666666667
8,1646861506000,09/03/2022 21:31:46,1646861506155,1,09/03/2022 22:31:46,73265,15,task-59ft,,20249759,BLIND,5973327,Intro Experiment: General explanations,complete,,,computer,Desktop or Laptop,Windows 10,Chrome 99.0.4844.51,1920x1080,1920x937,Part 1 completed,Colors_Only_Dutch,6,Part 1 completed,,Accuracy_level_1,,"<div style=""font-size:60px;"">  </div>",,,,html-keyboard-response,7,21457,0.0-1.0-0.3,,,,,,,
9,1646861507493,09/03/2022 21:31:47,1646861507669,1,09/03/2022 22:31:47,73265,15,task-59ft,,20249759,BLIND,5973327,Intro Experiment: General explanations,complete,,,computer,Desktop or Laptop,Windows 10,Chrome 99.0.4844.51,1920x1080,1920x937,Part 1 completed,Colors_Only_Dutch,6,Part 1 completed,,Accuracy_level_1,623.5,/task/320040/6/asset/pink.png,,,,image-keyboard-response,8,22971,0.0-1.0-1.3,,1,test, ,0.5571428571428572,1,0.10815
10,1646861507584,09/03/2022 21:31:47,1646861507776,1,09/03/2022 22:31:47,73265,15,task-59ft,,20249759,BLIND,5973327,Intro Experiment: General explanations,complete,,,computer,Desktop or Laptop,Windows 10,Chrome 99.0.4844.51,1920x1080,1920x937,Part 1 completed,Colors_Only_Dutch,6,Part 1 completed,,Accuracy_level_1,,"<div style=""font-size:60px;"">  </div>",,,,html-keyboard-response,9,23078,0.0-1.0-0.4,,,,,,,
11,1646861509115,09/03/2022 21:31:49,1646861509293,1,09/03/2022 22:31:49,73265,15,task-59ft,,20249759,BLIND,5973327,Intro Experiment: General explanations,complete,,,computer,Desktop or Laptop,Windows 10,Chrome 99.0.4844.51,1920x1080,1920x937,Part 1 completed,Colors_Only_Dutch,6,Part 1 completed,,Accuracy_level_1,626.1000000238419,/task/320040/6/asset/pink.png,,,,image-keyboard-response,10,24595,0.0-1.0-1.4,,1,test, ,0.5777777777777778,1,0.13521666666666668
12,1646861509213,09/03/2022 21:31:49,1646861509400,1,09/03/2022 22:31:49,73265,15,task-59ft,,20249759,BLIND,5973327,Intro Experiment: General explanations,complete,,,computer,Desktop or Laptop,Windows 10,Chrome 99.0.4844.51,1920x1080,1920x937,Part 1 completed,Colors_Only_Dutch,6,Part 1 completed,,Accuracy_level_1,,"<div style=""font-size:60px;"">  </div>",,,,html-keyboard-response,11,24702,0.0-1.0-0.5,,,,,,,
13,1646861510731,09/03/2022 21:31:50,1646861510916,1,09/03/2022 22:31:50,73265,15,task-59ft,,20249759,BLIND,5973327,Intro Experiment: General explanations,complete,,,computer,Desktop or Laptop,Windows 10,Chrome 99.0.4844.51,1920x1080,1920x937,Part 1 completed,Colors_Only_Dutch,6,Part 1 completed,,Accuracy_level_1,,/task/320040/6/asset/red.png,,,,image-keyboard-response,12,26218,0.0-1.0-1.5,,,test,,0.5909090909090909,1,0.16226666666666667
14,1646861510834,09/03/2022 21:31:50,1646861511023,1,09/03/2022 22:31:51,73265,15,task-59ft,,20249759,BLIND,5973327,Intro Experiment: General explanations,complete,,,computer,Desktop or Laptop,Windows 10,Chrome 99.0.4844.51,1920x1080,1920x937,Part 1 completed,Colors_Only_Dutch,6,Part 1 completed,,Accuracy_level_1,,"<div style=""font-size:60px;"">  </div>",,,,html-keyboard-response,13,26325,0.0-1.0-0.6,,,,,,,
15,1646861512343,09/03/2022 21:31:52,1646861512528,1,09/03/2022 22:31:52,73265,15,task-59ft,,20249759,BLIND,5973327,Intro Experiment: General explanations,complete,,,computer,Desktop or Laptop,Windows 10,Chrome 99.0.4844.51,1920x1080,1920x937,Part 1 completed,Colors_Only_Dutch,6,Part 1 completed,,Accuracy_level_1,913.3000000119209,/task/320040/6/asset/red.png,,,,image-keyboard-response,14,27830,0.0-1.0-1.6,,1,test, ,0.6,1,0.18913333333333332
16,1646861512439,09/03/2022 21:31:52,1646861512635,1,09/03/2022 22:31:52,73265,15,task-59ft,,20249759,BLIND,5973327,Intro Experiment: General explanations,complete,,,computer,Desktop or Laptop,Windows 10,Chrome 99.0.4844.51,1920x1080,1920x937,Part 1 completed,Colors_Only_Dutch,6,Part 1 completed,,Accuracy_level_1,,"<div style=""font-size:60px;"">  </div>",,,,html-keyboard-response,15,27937,0.0-1.0-0.7,,,,,,,
17,1646861513953,09/03/2022 21:31:53,1646861514138,1,09/03/2022 22:31:54,73265,15,task-59ft,,20249759,BLIND,5973327,Intro Experiment: General explanations,complete,,,computer,Desktop or Laptop,Windows 10,Chrome 99.0.4844.51,1920x1080,1920x937,Part 1 completed,Colors_Only_Dutch,6,Part 1 completed,,Accuracy_level_1,730.1999999880791,/task/320040/6/asset/red.png,,,,image-keyboard-response,16,29440,0.0-1.0-1.7,,1,test, ,0.6066666666666667,1,0.21596666666666667
1,1647091273033,12/03/2022 13:21:13,1647091272636,1,12/03/2022 14:21:12,73265,15,task-59ft,,20320739,BLIND,6021527,Intro Experiment: General explanations,complete,,,computer,Desktop or Laptop,Windows 10,Chrome 99.0.4844.51,1536x864,1536x722,Part 1 completed,Colors_Only_Dutch,6,Part 1 completed,,Accuracy_level_1,6122.200000047684,,,,,instructions,0,6126,0.0-0.0,,,,,,,
2,1647091273120,12/03/2022 13:21:13,1647091272742,1,12/03/2022 14:21:12,73265,15,task-59ft,,20320739,BLIND,6021527,Intro Experiment: General explanations,complete,,,computer,Desktop or Laptop,Windows 10,Chrome 99.0.4844.51,1536x864,1536x722,Part 1 completed,Colors_Only_Dutch,6,Part 1 completed,,Accuracy_level_1,,"<div style=""font-size:60px;"">  </div>",,,,html-keyboard-response,1,6233,0.0-1.0-0.0,,,,,,,
3,1647091274564,12/03/2022 13:21:14,1647091274253,1,12/03/2022 14:21:14,73265,15,task-59ft,,20320739,BLIND,6021527,Intro Experiment: General explanations,complete,,,computer,Desktop or Laptop,Windows 10,Chrome 99.0.4844.51,1536x864,1536x722,Part 1 completed,Colors_Only_Dutch,6,Part 1 completed,,Accuracy_level_1,,/task/320040/6/asset/red.png,,,,image-keyboard-response,2,7744,0.0-1.0-1.0,,1,test, ,0,,0.026966666666666667
4,1647091274819,12/03/2022 13:21:14,1647091274362,1,12/03/2022 14:21:14,73265,15,task-59ft,,20320739,BLIND,6021527,Intro Experiment: General explanations,complete,,,computer,Desktop or Laptop,Windows 10,Chrome 99.0.4844.51,1536x864,1536x722,Part 1 completed,Colors_Only_Dutch,6,Part 1 completed,,Accuracy_level_1,,"<div style=""font-size:60px;"">  </div>",,,,html-keyboard-response,3,7853,0.0-1.0-0.1,,,,,,,
5,1647091276209,12/03/2022 13:21:16,1647091275878,1,12/03/2022 14:21:15,73265,15,task-59ft,,20320739,BLIND,6021527,Intro Experiment: General explanations,complete,,,computer,Desktop or Laptop,Windows 10,Chrome 99.0.4844.51,1536x864,1536x722,Part 1 completed,Colors_Only_Dutch,6,Part 1 completed,,Accuracy_level_1,482.69999980926514,/task/320040/6/asset/red.png,,,,image-keyboard-response,4,9369,0.0-1.0-1.1,,1,test, ,0.43333333333333335,1,0.05405
6,1647091276298,12/03/2022 13:21:16,1647091275989,1,12/03/2022 14:21:15,73265,15,task-59ft,,20320739,BLIND,6021527,Intro Experiment: General explanations,complete,,,computer,Desktop or Laptop,Windows 10,Chrome 99.0.4844.51,1536x864,1536x722,Part 1 completed,Colors_Only_Dutch,6,Part 1 completed,,Accuracy_level_1,,"<div style=""font-size:60px;"">  </div>",,,,html-keyboard-response,5,9479,0.0-1.0-0.2,,,,,,,
7,1647091277818,12/03/2022 13:21:17,1647091277502,1,12/03/2022 14:21:17,73265,15,task-59ft,,20320739,BLIND,6021527,Intro Experiment: General explanations,complete,,,computer,Desktop or Laptop,Windows 10,Chrome 99.0.4844.51,1536x864,1536x722,Part 1 completed,Colors_Only_Dutch,6,Part 1 completed,,Accuracy_level_1,,/task/320040/6/asset/black.png,,,,image-keyboard-response,6,10993,0.0-1.0-1.2,,,test,,0.52,1,0.08111666666666667
8,1647091277927,12/03/2022 13:21:17,1647091277611,1,12/03/2022 14:21:17,73265,15,task-59ft,,20320739,BLIND,6021527,Intro Experiment: General explanations,complete,,,computer,Desktop or Laptop,Windows 10,Chrome 99.0.4844.51,1536x864,1536x722,Part 1 completed,Colors_Only_Dutch,6,Part 1 completed,,Accuracy_level_1,,"<div style=""font-size:60px;"">  </div>",,,,html-keyboard-response,7,11102,0.0-1.0-0.3,,,,,,,
9,1647091279427,12/03/2022 13:21:19,1647091279120,1,12/03/2022 14:21:19,73265,15,task-59ft,,20320739,BLIND,6021527,Intro Experiment: General explanations,complete,,,computer,Desktop or Laptop,Windows 10,Chrome 99.0.4844.51,1536x864,1536x722,Part 1 completed,Colors_Only_Dutch,6,Part 1 completed,,Accuracy_level_1,410.2000000476837,/task/320040/6/asset/black.png,,,,image-keyboard-response,8,12611,0.0-1.0-1.3,,1,test, ,0.5571428571428572,1,0.10808333333333334
10,1647091279537,12/03/2022 13:21:19,1647091279227,1,12/03/2022 14:21:19,73265,15,task-59ft,,20320739,BLIND,6021527,Intro Experiment: General explanations,complete,,,computer,Desktop or Laptop,Windows 10,Chrome 99.0.4844.51,1536x864,1536x722,Part 1 completed,Colors_Only_Dutch,6,Part 1 completed,,Accuracy_level_1,,"<div style=""font-size:60px;"">  </div>",,,,html-keyboard-response,9,12718,0.0-1.0-0.4,,,,,,,
11,1647091281078,12/03/2022 13:21:21,1647091280741,1,12/03/2022 14:21:20,73265,15,task-59ft,,20320739,BLIND,6021527,Intro Experiment: General explanations,complete,,,computer,Desktop or Laptop,Windows 10,Chrome 99.0.4844.51,1536x864,1536x722,Part 1 completed,Colors_Only_Dutch,6,Part 1 completed,,Accuracy_level_1,557.4000000953674,/task/320040/6/asset/black.png,,,,image-keyboard-response,10,14232,0.0-1.0-1.4,,1,test, ,0.5777777777777778,1,0.1351
12,1647091281164,12/03/2022 13:21:21,1647091280850,1,12/03/2022 14:21:20,73265,15,task-59ft,,20320739,BLIND,6021527,Intro Experiment: General explanations,complete,,,computer,Desktop or Laptop,Windows 10,Chrome 99.0.4844.51,1536x864,1536x722,Part 1 completed,Colors_Only_Dutch,6,Part 1 completed,,Accuracy_level_1,,"<div style=""font-size:60px;"">  </div>",,,,html-keyboard-response,11,14340,0.0-1.0-0.5,,,,,,,
13,1647091282665,12/03/2022 13:21:22,1647091282358,1,12/03/2022 14:21:22,73265,15,task-59ft,,20320739,BLIND,6021527,Intro Experiment: General explanations,complete,,,computer,Desktop or Laptop,Windows 10,Chrome 99.0.4844.51,1536x864,1536x722,Part 1 completed,Colors_Only_Dutch,6,Part 1 completed,,Accuracy_level_1,387.10000014305115,/task/320040/6/asset/black.png,,,,image-keyboard-response,12,15849,0.0-1.0-1.5,,1,test, ,0.5909090909090909,1,0.16205
14,1647091282793,12/03/2022 13:21:22,1647091282467,1,12/03/2022 14:21:22,73265,15,task-59ft,,20320739,BLIND,6021527,Intro Experiment: General explanations,complete,,,computer,Desktop or Laptop,Windows 10,Chrome 99.0.4844.51,1536x864,1536x722,Part 1 completed,Colors_Only_Dutch,6,Part 1 completed,,Accuracy_level_1,,"<div style=""font-size:60px;"">  </div>",,,,html-keyboard-response,13,15958,0.0-1.0-0.6,,,,,,,
15,1647091284309,12/03/2022 13:21:24,1647091283982,1,12/03/2022 14:21:23,73265,15,task-59ft,,20320739,BLIND,6021527,Intro Experiment: General explanations,complete,,,computer,Desktop or Laptop,Windows 10,Chrome 99.0.4844.51,1536x864,1536x722,Part 1 completed,Colors_Only_Dutch,6,Part 1 completed,,Accuracy_level_1,,/task/320040/6/asset/yellow.png,,,,image-keyboard-response,14,17473,0.0-1.0-1.6,,,test,,0.6,1,0.18911666666666666
16,1647091284407,12/03/2022 13:21:24,1647091284091,1,12/03/2022 14:21:24,73265,15,task-59ft,,20320739,BLIND,6021527,Intro Experiment: General explanations,complete,,,computer,Desktop or Laptop,Windows 10,Chrome 99.0.4844.51,1536x864,1536x722,Part 1 completed,Colors_Only_Dutch,6,Part 1 completed,,Accuracy_level_1,,"<div style=""font-size:60px;"">  </div>",,,,html-keyboard-response,15,17582,0.0-1.0-0.7,,,,,,,
17,1647091285923,12/03/2022 13:21:25,1647091285602,1,12/03/2022 14:21:25,73265,15,task-59ft,,20320739,BLIND,6021527,Intro Experiment: General explanations,complete,,,computer,Desktop or Laptop,Windows 10,Chrome 99.0.4844.51,1536x864,1536x722,Part 1 completed,Colors_Only_Dutch,6,Part 1 completed,,Accuracy_level_1,478.2999999523163,/task/320040/6/asset/yellow.png,,,,image-keyboard-response,16,19093,0.0-1.0-1.7,,1,test, ,0.6066666666666667,1,0.21611666666666668
1,1647289835729,14/03/2022 20:30:35,1647289835693,1,14/03/2022 21:30:35,73265,15,task-59ft,,20384165,BLIND,6034899,Intro Experiment: General explanations,complete,,,computer,Desktop or Laptop,Windows 10,Chrome 99.0.4844.51,1536x864,1536x722,Part 1 completed,Colors_Only_Dutch,6,Part 1 completed,,Accuracy_level_1,287252.3000000119,,,,,instructions,0,287257,0.0-0.0,,,,,,,
2,1647289835875,14/03/2022 20:30:35,1647289835803,1,14/03/2022 21:30:35,73265,15,task-59ft,,20384165,BLIND,6034899,Intro Experiment: General explanations,complete,,,computer,Desktop or Laptop,Windows 10,Chrome 99.0.4844.51,1536x864,1536x722,Part 1 completed,Colors_Only_Dutch,6,Part 1 completed,,Accuracy_level_1,,"<div style=""font-size:60px;"">  </div>",,,,html-keyboard-response,1,287368,0.0-1.0-0.0,,,,,,,
3,1647289837297,14/03/2022 20:30:37,1647289837307,1,14/03/2022 21:30:37,73265,15,task-59ft,,20384165,BLIND,6034899,Intro Experiment: General explanations,complete,,,computer,Desktop or Laptop,Windows 10,Chrome 99.0.4844.51,1536x864,1536x722,Part 1 completed,Colors_Only_Dutch,6,Part 1 completed,,Accuracy_level_1,,/task/320040/6/asset/white.png,,,,image-keyboard-response,2,288871,0.0-1.0-1.0,,1,test, ,0,,0.026916666666666665
4,1647289837384,14/03/2022 20:30:37,1647289837410,1,14/03/2022 21:30:37,73265,15,task-59ft,,20384165,BLIND,6034899,Intro Experiment: General explanations,complete,,,computer,Desktop or Laptop,Windows 10,Chrome 99.0.4844.51,1536x864,1536x722,Part 1 completed,Colors_Only_Dutch,6,Part 1 completed,,Accuracy_level_1,,"<div style=""font-size:60px;"">  </div>",,,,html-keyboard-response,3,288975,0.0-1.0-0.1,,,,,,,
5,1647289838878,14/03/2022 20:30:38,1647289838914,1,14/03/2022 21:30:38,73265,15,task-59ft,,20384165,BLIND,6034899,Intro Experiment: General explanations,complete,,,computer,Desktop or Laptop,Windows 10,Chrome 99.0.4844.51,1536x864,1536x722,Part 1 completed,Colors_Only_Dutch,6,Part 1 completed,,Accuracy_level_1,359.59999999403954,/task/320040/6/asset/white.png,,,,image-keyboard-response,4,290478,0.0-1.0-1.1,,1,test, ,0.43333333333333335,1,0.0537
6,1647289838979,14/03/2022 20:30:38,1647289839017,1,14/03/2022 21:30:39,73265,15,task-59ft,,20384165,BLIND,6034899,Intro Experiment: General explanations,complete,,,computer,Desktop or Laptop,Windows 10,Chrome 99.0.4844.51,1536x864,1536x722,Part 1 completed,Colors_Only_Dutch,6,Part 1 completed,,Accuracy_level_1,,"<div style=""font-size:60px;"">  </div>",,,,html-keyboard-response,5,290582,0.0-1.0-0.2,,,,,,,
7,1647289840488,14/03/2022 20:30:40,1647289840532,1,14/03/2022 21:30:40,73265,15,task-59ft,,20384165,BLIND,6034899,Intro Experiment: General explanations,complete,,,computer,Desktop or Laptop,Windows 10,Chrome 99.0.4844.51,1536x864,1536x722,Part 1 completed,Colors_Only_Dutch,6,Part 1 completed,,Accuracy_level_1,,/task/320040/6/asset/pink.png,,,,image-keyboard-response,6,292097,0.0-1.0-1.2,,,test,,0.52,1,0.08066666666666666
8,1647289840597,14/03/2022 20:30:40,1647289840635,1,14/03/2022 21:30:40,73265,15,task-59ft,,20384165,BLIND,6034899,Intro Experiment: General explanations,complete,,,computer,Desktop or Laptop,Windows 10,Chrome 99.0.4844.51,1536x864,1536x722,Part 1 completed,Colors_Only_Dutch,6,Part 1 completed,,Accuracy_level_1,,"<div style=""font-size:60px;"">  </div>",,,,html-keyboard-response,7,292200,0.0-1.0-0.3,,,,,,,
9,1647289842115,14/03/2022 20:30:42,1647289842139,1,14/03/2022 21:30:42,73265,15,task-59ft,,20384165,BLIND,6034899,Intro Experiment: General explanations,complete,,,computer,Desktop or Laptop,Windows 10,Chrome 99.0.4844.51,1536x864,1536x722,Part 1 completed,Colors_Only_Dutch,6,Part 1 completed,,Accuracy_level_1,350.40000000596046,/task/320040/6/asset/pink.png,,,,image-keyboard-response,8,293704,0.0-1.0-1.3,,1,test, ,0.5571428571428572,1,0.10745
10,1647289842219,14/03/2022 20:30:42,1647289842242,1,14/03/2022 21:30:42,73265,15,task-59ft,,20384165,BLIND,6034899,Intro Experiment: General explanations,complete,,,computer,Desktop or Laptop,Windows 10,Chrome 99.0.4844.51,1536x864,1536x722,Part 1 completed,Colors_Only_Dutch,6,Part 1 completed,,Accuracy_level_1,,"<div style=""font-size:60px;"">  </div>",,,,html-keyboard-response,9,293807,0.0-1.0-0.4,,,,,,,
11,1647289843709,14/03/2022 20:30:43,1647289843746,1,14/03/2022 21:30:43,73265,15,task-59ft,,20384165,BLIND,6034899,Intro Experiment: General explanations,complete,,,computer,Desktop or Laptop,Windows 10,Chrome 99.0.4844.51,1536x864,1536x722,Part 1 completed,Colors_Only_Dutch,6,Part 1 completed,,Accuracy_level_1,606.3000000119209,/task/320040/6/asset/pink.png,,,,image-keyboard-response,10,295310,0.0-1.0-1.4,,1,test, ,0.5777777777777778,1,0.13423333333333334
12,1647289844002,14/03/2022 20:30:44,1647289843849,1,14/03/2022 21:30:43,73265,15,task-59ft,,20384165,BLIND,6034899,Intro Experiment: General explanations,complete,,,computer,Desktop or Laptop,Windows 10,Chrome 99.0.4844.51,1536x864,1536x722,Part 1 completed,Colors_Only_Dutch,6,Part 1 completed,,Accuracy_level_1,,"<div style=""font-size:60px;"">  </div>",,,,html-keyboard-response,11,295414,0.0-1.0-0.5,,,,,,,
13,1647289845330,14/03/2022 20:30:45,1647289845351,1,14/03/2022 21:30:45,73265,15,task-59ft,,20384165,BLIND,6034899,Intro Experiment: General explanations,complete,,,computer,Desktop or Laptop,Windows 10,Chrome 99.0.4844.51,1536x864,1536x722,Part 1 completed,Colors_Only_Dutch,6,Part 1 completed,,Accuracy_level_1,,/task/320040/6/asset/green.png,,,,image-keyboard-response,12,296916,0.0-1.0-1.5,,,test,,0.5909090909090909,1,0.16098333333333334
14,1647289845424,14/03/2022 20:30:45,1647289845454,1,14/03/2022 21:30:45,73265,15,task-59ft,,20384165,BLIND,6034899,Intro Experiment: General explanations,complete,,,computer,Desktop or Laptop,Windows 10,Chrome 99.0.4844.51,1536x864,1536x722,Part 1 completed,Colors_Only_Dutch,6,Part 1 completed,,Accuracy_level_1,,"<div style=""font-size:60px;"">  </div>",,,,html-keyboard-response,13,297019,0.0-1.0-0.6,,,,,,,
15,1647289846915,14/03/2022 20:30:46,1647289846957,1,14/03/2022 21:30:46,73265,15,task-59ft,,20384165,BLIND,6034899,Intro Experiment: General explanations,complete,,,computer,Desktop or Laptop,Windows 10,Chrome 99.0.4844.51,1536x864,1536x722,Part 1 completed,Colors_Only_Dutch,6,Part 1 completed,,Accuracy_level_1,,/task/320040/6/asset/pink.png,,,,image-keyboard-response,14,298522,0.0-1.0-1.6,,,test,,0.6,1,0.18775
16,1647289847018,14/03/2022 20:30:47,1647289847061,1,14/03/2022 21:30:47,73265,15,task-59ft,,20384165,BLIND,6034899,Intro Experiment: General explanations,complete,,,computer,Desktop or Laptop,Windows 10,Chrome 99.0.4844.51,1536x864,1536x722,Part 1 completed,Colors_Only_Dutch,6,Part 1 completed,,Accuracy_level_1,,"<div style=""font-size:60px;"">  </div>",,,,html-keyboard-response,15,298626,0.0-1.0-0.7,,,,,,,
17,1647289848525,14/03/2022 20:30:48,1647289848564,1,14/03/2022 21:30:48,73265,15,task-59ft,,20384165,BLIND,6034899,Intro Experiment: General explanations,complete,,,computer,Desktop or Laptop,Windows 10,Chrome 99.0.4844.51,1536x864,1536x722,Part 1 completed,Colors_Only_Dutch,6,Part 1 completed,,Accuracy_level_1,221.80000001192093,/task/320040/6/asset/pink.png,,,,image-keyboard-response,16,300129,0.0-1.0-1.7,,1,test, ,0.6066666666666667,1,0.21453333333333333
1,1647789820778,20/03/2022 15:23:40,1647789820662,1,20/03/2022 16:23:40,73265,15,task-59ft,,20579007,BLIND,6094733,Intro Experiment: General explanations,complete,,,computer,Desktop or Laptop,Mac OS 10.15.3,Safari 13.0.5,1280x800,1277x673,Part 1 completed,Colors_Only_Dutch,6,Part 1 completed,,Accuracy_level_1,10765,,,,,instructions,0,10768,0.0-0.0,,,,,,,
2,1647789820860,20/03/2022 15:23:40,1647789820766,1,20/03/2022 16:23:40,73265,15,task-59ft,,20579007,BLIND,6094733,Intro Experiment: General explanations,complete,,,computer,Desktop or Laptop,Mac OS 10.15.3,Safari 13.0.5,1280x800,1277x673,Part 1 completed,Colors_Only_Dutch,6,Part 1 completed,,Accuracy_level_1,,"<div style=""font-size:60px;"">  </div>",,,,html-keyboard-response,1,10873,0.0-1.0-0.0,,,,,,,
3,1647789822296,20/03/2022 15:23:42,1647789822270,1,20/03/2022 16:23:42,73265,15,task-59ft,,20579007,BLIND,6094733,Intro Experiment: General explanations,complete,,,computer,Desktop or Laptop,Mac OS 10.15.3,Safari 13.0.5,1280x800,1277x673,Part 1 completed,Colors_Only_Dutch,6,Part 1 completed,,Accuracy_level_1,,/task/320040/6/asset/blue.png,,,,image-keyboard-response,2,12377,0.0-1.0-1.0,,,test,,1.3,1,0.0268
4,1647789822422,20/03/2022 15:23:42,1647789822374,1,20/03/2022 16:23:42,73265,15,task-59ft,,20579007,BLIND,6094733,Intro Experiment: General explanations,complete,,,computer,Desktop or Laptop,Mac OS 10.15.3,Safari 13.0.5,1280x800,1277x673,Part 1 completed,Colors_Only_Dutch,6,Part 1 completed,,Accuracy_level_1,,"<div style=""font-size:60px;"">  </div>",,,,html-keyboard-response,3,12481,0.0-1.0-0.1,,,,,,,
5,1647789823907,20/03/2022 15:23:43,1647789823879,1,20/03/2022 16:23:43,73265,15,task-59ft,,20579007,BLIND,6094733,Intro Experiment: General explanations,complete,,,computer,Desktop or Laptop,Mac OS 10.15.3,Safari 13.0.5,1280x800,1277x673,Part 1 completed,Colors_Only_Dutch,6,Part 1 completed,,Accuracy_level_1,,/task/320040/6/asset/red.png,,,,image-keyboard-response,4,13986,0.0-1.0-1.1,,,test,,0.8666666666666667,1,0.05361666666666667
6,1647789824008,20/03/2022 15:23:44,1647789823985,1,20/03/2022 16:23:43,73265,15,task-59ft,,20579007,BLIND,6094733,Intro Experiment: General explanations,complete,,,computer,Desktop or Laptop,Mac OS 10.15.3,Safari 13.0.5,1280x800,1277x673,Part 1 completed,Colors_Only_Dutch,6,Part 1 completed,,Accuracy_level_1,,"<div style=""font-size:60px;"">  </div>",,,,html-keyboard-response,5,14092,0.0-1.0-0.2,,,,,,,
7,1647789825539,20/03/2022 15:23:45,1647789825490,1,20/03/2022 16:23:45,73265,15,task-59ft,,20579007,BLIND,6094733,Intro Experiment: General explanations,complete,,,computer,Desktop or Laptop,Mac OS 10.15.3,Safari 13.0.5,1280x800,1277x673,Part 1 completed,Colors_Only_Dutch,6,Part 1 completed,,Accuracy_level_1,,/task/320040/6/asset/pink.png,,,,image-keyboard-response,6,15597,0.0-1.0-1.2,,,test,,0.78,1,0.08046666666666667
8,1647789825623,20/03/2022 15:23:45,1647789825594,1,20/03/2022 16:23:45,73265,15,task-59ft,,20579007,BLIND,6094733,Intro Experiment: General explanations,complete,,,computer,Desktop or Laptop,Mac OS 10.15.3,Safari 13.0.5,1280x800,1277x673,Part 1 completed,Colors_Only_Dutch,6,Part 1 completed,,Accuracy_level_1,,"<div style=""font-size:60px;"">  </div>",,,,html-keyboard-response,7,15701,0.0-1.0-0.3,,,,,,,
9,1647789827140,20/03/2022 15:23:47,1647789827101,1,20/03/2022 16:23:47,73265,15,task-59ft,,20579007,BLIND,6094733,Intro Experiment: General explanations,complete,,,computer,Desktop or Laptop,Mac OS 10.15.3,Safari 13.0.5,1280x800,1277x673,Part 1 completed,Colors_Only_Dutch,6,Part 1 completed,,Accuracy_level_1,613,/task/320040/6/asset/pink.png,,,,image-keyboard-response,8,17208,0.0-1.0-1.3,,1,test, ,0.7428571428571429,1,0.10731666666666667
10,1647789827243,20/03/2022 15:23:47,1647789827205,1,20/03/2022 16:23:47,73265,15,task-59ft,,20579007,BLIND,6094733,Intro Experiment: General explanations,complete,,,computer,Desktop or Laptop,Mac OS 10.15.3,Safari 13.0.5,1280x800,1277x673,Part 1 completed,Colors_Only_Dutch,6,Part 1 completed,,Accuracy_level_1,,"<div style=""font-size:60px;"">  </div>",,,,html-keyboard-response,9,17312,0.0-1.0-0.4,,,,,,,
11,1647789828737,20/03/2022 15:23:48,1647789828709,1,20/03/2022 16:23:48,73265,15,task-59ft,,20579007,BLIND,6094733,Intro Experiment: General explanations,complete,,,computer,Desktop or Laptop,Mac OS 10.15.3,Safari 13.0.5,1280x800,1277x673,Part 1 completed,Colors_Only_Dutch,6,Part 1 completed,,Accuracy_level_1,,/task/320040/6/asset/green.png,,,,image-keyboard-response,10,18816,0.0-1.0-1.4,,,test,,0.7222222222222222,1,0.13411666666666666
12,1647789828843,20/03/2022 15:23:48,1647789828813,1,20/03/2022 16:23:48,73265,15,task-59ft,,20579007,BLIND,6094733,Intro Experiment: General explanations,complete,,,computer,Desktop or Laptop,Mac OS 10.15.3,Safari 13.0.5,1280x800,1277x673,Part 1 completed,Colors_Only_Dutch,6,Part 1 completed,,Accuracy_level_1,,"<div style=""font-size:60px;"">  </div>",,,,html-keyboard-response,11,18920,0.0-1.0-0.5,,,,,,,
13,1647789830346,20/03/2022 15:23:50,1647789830320,1,20/03/2022 16:23:50,73265,15,task-59ft,,20579007,BLIND,6094733,Intro Experiment: General explanations,complete,,,computer,Desktop or Laptop,Mac OS 10.15.3,Safari 13.0.5,1280x800,1277x673,Part 1 completed,Colors_Only_Dutch,6,Part 1 completed,,Accuracy_level_1,450,/task/320040/6/asset/green.png,,,,image-keyboard-response,12,20427,0.0-1.0-1.5,,1,test, ,0.7090909090909091,1,0.16096666666666667
14,1647789830449,20/03/2022 15:23:50,1647789830424,1,20/03/2022 16:23:50,73265,15,task-59ft,,20579007,BLIND,6094733,Intro Experiment: General explanations,complete,,,computer,Desktop or Laptop,Mac OS 10.15.3,Safari 13.0.5,1280x800,1277x673,Part 1 completed,Colors_Only_Dutch,6,Part 1 completed,,Accuracy_level_1,,"<div style=""font-size:60px;"">  </div>",,,,html-keyboard-response,13,20531,0.0-1.0-0.6,,,,,,,
15,1647789831955,20/03/2022 15:23:51,1647789831929,1,20/03/2022 16:23:51,73265,15,task-59ft,,20579007,BLIND,6094733,Intro Experiment: General explanations,complete,,,computer,Desktop or Laptop,Mac OS 10.15.3,Safari 13.0.5,1280x800,1277x673,Part 1 completed,Colors_Only_Dutch,6,Part 1 completed,,Accuracy_level_1,743,/task/320040/6/asset/green.png,,,,image-keyboard-response,14,22036,0.0-1.0-1.6,,1,test, ,0.7,1,0.18778333333333333
16,1647789832063,20/03/2022 15:23:52,1647789832032,1,20/03/2022 16:23:52,73265,15,task-59ft,,20579007,BLIND,6094733,Intro Experiment: General explanations,complete,,,computer,Desktop or Laptop,Mac OS 10.15.3,Safari 13.0.5,1280x800,1277x673,Part 1 completed,Colors_Only_Dutch,6,Part 1 completed,,Accuracy_level_1,,"<div style=""font-size:60px;"">  </div>",,,,html-keyboard-response,15,22139,0.0-1.0-0.7,,,,,,,
17,1647789833566,20/03/2022 15:23:53,1647789833536,1,20/03/2022 16:23:53,73265,15,task-59ft,,20579007,BLIND,6094733,Intro Experiment: General explanations,complete,,,computer,Desktop or Laptop,Mac OS 10.15.3,Safari 13.0.5,1280x800,1277x673,Part 1 completed,Colors_Only_Dutch,6,Part 1 completed,,Accuracy_level_1,710.9999999999964,/task/320040/6/asset/green.png,,,,image-keyboard-response,16,23643,0.0-1.0-1.7,,1,test, ,0.6933333333333334,1,0.21456666666666666
1,1647647625949,18/03/2022 23:53:45,1647647625641,1,19/03/2022 00:53:45,73265,15,task-59ft,,20549585,BLIND,6054962,Intro Experiment: General explanations,complete,,,computer,Desktop or Laptop,Mac OS 10.15.7,Safari 15.2,1440x900,1440x723,Part 1 completed,Colors_Only_Dutch,6,Part 1 completed,,Accuracy_level_1,12331,,,,,instructions,0,12334,0.0-0.0,,,,,,,
2,1647647626035,18/03/2022 23:53:46,1647647625746,1,19/03/2022 00:53:45,73265,15,task-59ft,,20549585,BLIND,6054962,Intro Experiment: General explanations,complete,,,computer,Desktop or Laptop,Mac OS 10.15.7,Safari 15.2,1440x900,1440x723,Part 1 completed,Colors_Only_Dutch,6,Part 1 completed,,Accuracy_level_1,,"<div style=""font-size:60px;"">  </div>",,,,html-keyboard-response,1,12439,0.0-1.0-0.0,,,,,,,
3,1647647627503,18/03/2022 23:53:47,1647647627251,1,19/03/2022 00:53:47,73265,15,task-59ft,,20549585,BLIND,6054962,Intro Experiment: General explanations,complete,,,computer,Desktop or Laptop,Mac OS 10.15.7,Safari 15.2,1440x900,1440x723,Part 1 completed,Colors_Only_Dutch,6,Part 1 completed,,Accuracy_level_1,,/task/320040/6/asset/green.png,,,,image-keyboard-response,2,13943,0.0-1.0-1.0,,1,test, ,0,,0.026833333333333334
4,1647647627613,18/03/2022 23:53:47,1647647627357,1,19/03/2022 00:53:47,73265,15,task-59ft,,20549585,BLIND,6054962,Intro Experiment: General explanations,complete,,,computer,Desktop or Laptop,Mac OS 10.15.7,Safari 15.2,1440x900,1440x723,Part 1 completed,Colors_Only_Dutch,6,Part 1 completed,,Accuracy_level_1,,"<div style=""font-size:60px;"">  </div>",,,,html-keyboard-response,3,14050,0.0-1.0-0.1,,,,,,,
5,1647647629113,18/03/2022 23:53:49,1647647628861,1,19/03/2022 00:53:48,73265,15,task-59ft,,20549585,BLIND,6054962,Intro Experiment: General explanations,complete,,,computer,Desktop or Laptop,Mac OS 10.15.7,Safari 15.2,1440x900,1440x723,Part 1 completed,Colors_Only_Dutch,6,Part 1 completed,,Accuracy_level_1,356,/task/320040/6/asset/green.png,,,,image-keyboard-response,4,15554,0.0-1.0-1.1,,1,test, ,0.43333333333333335,1,0.05366666666666667
6,1647647629212,18/03/2022 23:53:49,1647647628964,1,19/03/2022 00:53:48,73265,15,task-59ft,,20549585,BLIND,6054962,Intro Experiment: General explanations,complete,,,computer,Desktop or Laptop,Mac OS 10.15.7,Safari 15.2,1440x900,1440x723,Part 1 completed,Colors_Only_Dutch,6,Part 1 completed,,Accuracy_level_1,,"<div style=""font-size:60px;"">  </div>",,,,html-keyboard-response,5,15657,0.0-1.0-0.2,,,,,,,
7,1647647630712,18/03/2022 23:53:50,1647647630469,1,19/03/2022 00:53:50,73265,15,task-59ft,,20549585,BLIND,6054962,Intro Experiment: General explanations,complete,,,computer,Desktop or Laptop,Mac OS 10.15.7,Safari 15.2,1440x900,1440x723,Part 1 completed,Colors_Only_Dutch,6,Part 1 completed,,Accuracy_level_1,367,/task/320040/6/asset/green.png,,,,image-keyboard-response,6,17162,0.0-1.0-1.2,,1,test, ,0.52,1,0.08046666666666667
8,1647647630829,18/03/2022 23:53:50,1647647630574,1,19/03/2022 00:53:50,73265,15,task-59ft,,20549585,BLIND,6054962,Intro Experiment: General explanations,complete,,,computer,Desktop or Laptop,Mac OS 10.15.7,Safari 15.2,1440x900,1440x723,Part 1 completed,Colors_Only_Dutch,6,Part 1 completed,,Accuracy_level_1,,"<div style=""font-size:60px;"">  </div>",,,,html-keyboard-response,7,17267,0.0-1.0-0.3,,,,,,,
9,1647647632321,18/03/2022 23:53:52,1647647632079,1,19/03/2022 00:53:52,73265,15,task-59ft,,20549585,BLIND,6054962,Intro Experiment: General explanations,complete,,,computer,Desktop or Laptop,Mac OS 10.15.7,Safari 15.2,1440x900,1440x723,Part 1 completed,Colors_Only_Dutch,6,Part 1 completed,,Accuracy_level_1,348.00000000000364,/task/320040/6/asset/green.png,,,,image-keyboard-response,8,18772,0.0-1.0-1.3,,1,test, ,0.5571428571428572,1,0.1073
10,1647647632429,18/03/2022 23:53:52,1647647632184,1,19/03/2022 00:53:52,73265,15,task-59ft,,20549585,BLIND,6054962,Intro Experiment: General explanations,complete,,,computer,Desktop or Laptop,Mac OS 10.15.7,Safari 15.2,1440x900,1440x723,Part 1 completed,Colors_Only_Dutch,6,Part 1 completed,,Accuracy_level_1,,"<div style=""font-size:60px;"">  </div>",,,,html-keyboard-response,9,18877,0.0-1.0-0.4,,,,,,,
11,1647647634367,18/03/2022 23:53:54,1647647633690,1,19/03/2022 00:53:53,73265,15,task-59ft,,20549585,BLIND,6054962,Intro Experiment: General explanations,complete,,,computer,Desktop or Laptop,Mac OS 10.15.7,Safari 15.2,1440x900,1440x723,Part 1 completed,Colors_Only_Dutch,6,Part 1 completed,,Accuracy_level_1,343,/task/320040/6/asset/green.png,,,,image-keyboard-response,10,20383,0.0-1.0-1.4,,1,test, ,0.5777777777777778,1,0.13415
12,1647647634462,18/03/2022 23:53:54,1647647633795,1,19/03/2022 00:53:53,73265,15,task-59ft,,20549585,BLIND,6054962,Intro Experiment: General explanations,complete,,,computer,Desktop or Laptop,Mac OS 10.15.7,Safari 15.2,1440x900,1440x723,Part 1 completed,Colors_Only_Dutch,6,Part 1 completed,,Accuracy_level_1,,"<div style=""font-size:60px;"">  </div>",,,,html-keyboard-response,11,20487,0.0-1.0-0.5,,,,,,,
13,1647647635547,18/03/2022 23:53:55,1647647635299,1,19/03/2022 00:53:55,73265,15,task-59ft,,20549585,BLIND,6054962,Intro Experiment: General explanations,complete,,,computer,Desktop or Laptop,Mac OS 10.15.7,Safari 15.2,1440x900,1440x723,Part 1 completed,Colors_Only_Dutch,6,Part 1 completed,,Accuracy_level_1,203,/task/320040/6/asset/green.png,,,,image-keyboard-response,12,21991,0.0-1.0-1.5,,1,test, ,0.5909090909090909,1,0.16096666666666667
14,1647647635637,18/03/2022 23:53:55,1647647635403,1,19/03/2022 00:53:55,73265,15,task-59ft,,20549585,BLIND,6054962,Intro Experiment: General explanations,complete,,,computer,Desktop or Laptop,Mac OS 10.15.7,Safari 15.2,1440x900,1440x723,Part 1 completed,Colors_Only_Dutch,6,Part 1 completed,,Accuracy_level_1,,"<div style=""font-size:60px;"">  </div>",,,,html-keyboard-response,13,22096,0.0-1.0-0.6,,,,,,,
15,1647647637148,18/03/2022 23:53:57,1647647636909,1,19/03/2022 00:53:56,73265,15,task-59ft,,20549585,BLIND,6054962,Intro Experiment: General explanations,complete,,,computer,Desktop or Laptop,Mac OS 10.15.7,Safari 15.2,1440x900,1440x723,Part 1 completed,Colors_Only_Dutch,6,Part 1 completed,,Accuracy_level_1,391,/task/320040/6/asset/green.png,,,,image-keyboard-response,14,23602,0.0-1.0-1.6,,1,test, ,0.6,1,0.1878
16,1647647637259,18/03/2022 23:53:57,1647647637014,1,19/03/2022 00:53:57,73265,15,task-59ft,,20549585,BLIND,6054962,Intro Experiment: General explanations,complete,,,computer,Desktop or Laptop,Mac OS 10.15.7,Safari 15.2,1440x900,1440x723,Part 1 completed,Colors_Only_Dutch,6,Part 1 completed,,Accuracy_level_1,,"<div style=""font-size:60px;"">  </div>",,,,html-keyboard-response,15,23707,0.0-1.0-0.7,,,,,,,
17,1647647638764,18/03/2022 23:53:58,1647647638519,1,19/03/2022 00:53:58,73265,15,task-59ft,,20549585,BLIND,6054962,Intro Experiment: General explanations,complete,,,computer,Desktop or Laptop,Mac OS 10.15.7,Safari 15.2,1440x900,1440x723,Part 1 completed,Colors_Only_Dutch,6,Part 1 completed,,Accuracy_level_1,296,/task/320040/6/asset/green.png,,,,image-keyboard-response,16,25212,0.0-1.0-1.7,,1,test, ,0.6066666666666667,1,0.21463333333333334
1,1647545983150,17/03/2022 19:39:43,1647545983087,1,17/03/2022 20:39:43,73265,15,task-59ft,,20513040,BLIND,6070227,Intro Experiment: General explanations,complete,,,computer,Desktop or Laptop,Windows 10,Chrome 99.0.4844.51,1366x768,1366x657,Part 1 completed,Colors_Only_Dutch,6,Part 1 completed,,Accuracy_level_1,9769.5,,,,,instructions,0,9785,0.0-0.0,,,,,,,
2,1647545983247,17/03/2022 19:39:43,1647545983244,1,17/03/2022 20:39:43,73265,15,task-59ft,,20513040,BLIND,6070227,Intro Experiment: General explanations,complete,,,computer,Desktop or Laptop,Windows 10,Chrome 99.0.4844.51,1366x768,1366x657,Part 1 completed,Colors_Only_Dutch,6,Part 1 completed,,Accuracy_level_1,,"<div style=""font-size:60px;"">  </div>",,,,html-keyboard-response,1,9943,0.0-1.0-0.0,,,,,,,
3,1647545984627,17/03/2022 19:39:44,1647545984762,1,17/03/2022 20:39:44,73265,15,task-59ft,,20513040,BLIND,6070227,Intro Experiment: General explanations,complete,,,computer,Desktop or Laptop,Windows 10,Chrome 99.0.4844.51,1366x768,1366x657,Part 1 completed,Colors_Only_Dutch,6,Part 1 completed,,Accuracy_level_1,,/task/320040/6/asset/purple.png,,,,image-keyboard-response,2,11460,0.0-1.0-1.0,,1,test, ,0,,0.027933333333333334
4,1647545984729,17/03/2022 19:39:44,1647545984871,1,17/03/2022 20:39:44,73265,15,task-59ft,,20513040,BLIND,6070227,Intro Experiment: General explanations,complete,,,computer,Desktop or Laptop,Windows 10,Chrome 99.0.4844.51,1366x768,1366x657,Part 1 completed,Colors_Only_Dutch,6,Part 1 completed,,Accuracy_level_1,,"<div style=""font-size:60px;"">  </div>",,,,html-keyboard-response,3,11571,0.0-1.0-0.1,,,,,,,
5,1647545986236,17/03/2022 19:39:46,1647545986377,1,17/03/2022 20:39:46,73265,15,task-59ft,,20513040,BLIND,6070227,Intro Experiment: General explanations,complete,,,computer,Desktop or Laptop,Windows 10,Chrome 99.0.4844.51,1366x768,1366x657,Part 1 completed,Colors_Only_Dutch,6,Part 1 completed,,Accuracy_level_1,,/task/320040/6/asset/yellow.png,,,,image-keyboard-response,4,13076,0.0-1.0-1.1,,,test,,0.43333333333333335,1,0.05485
6,1647545986338,17/03/2022 19:39:46,1647545986492,1,17/03/2022 20:39:46,73265,15,task-59ft,,20513040,BLIND,6070227,Intro Experiment: General explanations,complete,,,computer,Desktop or Laptop,Windows 10,Chrome 99.0.4844.51,1366x768,1366x657,Part 1 completed,Colors_Only_Dutch,6,Part 1 completed,,Accuracy_level_1,,"<div style=""font-size:60px;"">  </div>",,,,html-keyboard-response,5,13191,0.0-1.0-0.2,,,,,,,
7,1647545987913,17/03/2022 19:39:47,1647545988012,1,17/03/2022 20:39:48,73265,15,task-59ft,,20513040,BLIND,6070227,Intro Experiment: General explanations,complete,,,computer,Desktop or Laptop,Windows 10,Chrome 99.0.4844.51,1366x768,1366x657,Part 1 completed,Colors_Only_Dutch,6,Part 1 completed,,Accuracy_level_1,,/task/320040/6/asset/blue.png,,,,image-keyboard-response,6,14711,0.0-1.0-1.2,,,test,,0.52,1,0.0821
8,1647545988012,17/03/2022 19:39:48,1647545988127,1,17/03/2022 20:39:48,73265,15,task-59ft,,20513040,BLIND,6070227,Intro Experiment: General explanations,complete,,,computer,Desktop or Laptop,Windows 10,Chrome 99.0.4844.51,1366x768,1366x657,Part 1 completed,Colors_Only_Dutch,6,Part 1 completed,,Accuracy_level_1,,"<div style=""font-size:60px;"">  </div>",,,,html-keyboard-response,7,14826,0.0-1.0-0.3,,,,,,,
9,1647545989490,17/03/2022 19:39:49,1647545989643,1,17/03/2022 20:39:49,73265,15,task-59ft,,20513040,BLIND,6070227,Intro Experiment: General explanations,complete,,,computer,Desktop or Laptop,Windows 10,Chrome 99.0.4844.51,1366x768,1366x657,Part 1 completed,Colors_Only_Dutch,6,Part 1 completed,,Accuracy_level_1,,/task/320040/6/asset/yellow.png,,,,image-keyboard-response,8,16343,0.0-1.0-1.3,,,test,,0.5571428571428572,1,0.10928333333333333
10,1647545989592,17/03/2022 19:39:49,1647545989761,1,17/03/2022 20:39:49,73265,15,task-59ft,,20513040,BLIND,6070227,Intro Experiment: General explanations,complete,,,computer,Desktop or Laptop,Windows 10,Chrome 99.0.4844.51,1366x768,1366x657,Part 1 completed,Colors_Only_Dutch,6,Part 1 completed,,Accuracy_level_1,,"<div style=""font-size:60px;"">  </div>",,,,html-keyboard-response,9,16461,0.0-1.0-0.4,,,,,,,
11,1647545991177,17/03/2022 19:39:51,1647545991277,1,17/03/2022 20:39:51,73265,15,task-59ft,,20513040,BLIND,6070227,Intro Experiment: General explanations,complete,,,computer,Desktop or Laptop,Windows 10,Chrome 99.0.4844.51,1366x768,1366x657,Part 1 completed,Colors_Only_Dutch,6,Part 1 completed,,Accuracy_level_1,357.4000005722046,/task/320040/6/asset/yellow.png,,,,image-keyboard-response,10,17976,0.0-1.0-1.4,,1,test, ,0.5777777777777778,1,0.13651666666666668
12,1647545991255,17/03/2022 19:39:51,1647545991393,1,17/03/2022 20:39:51,73265,15,task-59ft,,20513040,BLIND,6070227,Intro Experiment: General explanations,complete,,,computer,Desktop or Laptop,Windows 10,Chrome 99.0.4844.51,1366x768,1366x657,Part 1 completed,Colors_Only_Dutch,6,Part 1 completed,,Accuracy_level_1,,"<div style=""font-size:60px;"">  </div>",,,,html-keyboard-response,11,18093,0.0-1.0-0.5,,,,,,,
13,1647545992827,17/03/2022 19:39:52,1647545992911,1,17/03/2022 20:39:52,73265,15,task-59ft,,20513040,BLIND,6070227,Intro Experiment: General explanations,complete,,,computer,Desktop or Laptop,Windows 10,Chrome 99.0.4844.51,1366x768,1366x657,Part 1 completed,Colors_Only_Dutch,6,Part 1 completed,,Accuracy_level_1,,/task/320040/6/asset/pink.png,,,,image-keyboard-response,12,19610,0.0-1.0-1.5,,,test,,0.5909090909090909,1,0.16375
14,1647545992912,17/03/2022 19:39:52,1647545993021,1,17/03/2022 20:39:53,73265,15,task-59ft,,20513040,BLIND,6070227,Intro Experiment: General explanations,complete,,,computer,Desktop or Laptop,Windows 10,Chrome 99.0.4844.51,1366x768,1366x657,Part 1 completed,Colors_Only_Dutch,6,Part 1 completed,,Accuracy_level_1,,"<div style=""font-size:60px;"">  </div>",,,,html-keyboard-response,13,19721,0.0-1.0-0.6,,,,,,,
15,1647545994362,17/03/2022 19:39:54,1647545994527,1,17/03/2022 20:39:54,73265,15,task-59ft,,20513040,BLIND,6070227,Intro Experiment: General explanations,complete,,,computer,Desktop or Laptop,Windows 10,Chrome 99.0.4844.51,1366x768,1366x657,Part 1 completed,Colors_Only_Dutch,6,Part 1 completed,,Accuracy_level_1,371.70000076293945,/task/320040/6/asset/pink.png,,,,image-keyboard-response,14,21226,0.0-1.0-1.6,,1,test, ,0.6,1,0.19068333333333334
16,1647545994478,17/03/2022 19:39:54,1647545994644,1,17/03/2022 20:39:54,73265,15,task-59ft,,20513040,BLIND,6070227,Intro Experiment: General explanations,complete,,,computer,Desktop or Laptop,Windows 10,Chrome 99.0.4844.51,1366x768,1366x657,Part 1 completed,Colors_Only_Dutch,6,Part 1 completed,,Accuracy_level_1,,"<div style=""font-size:60px;"">  </div>",,,,html-keyboard-response,15,21344,0.0-1.0-0.7,,,,,,,
17,1647545996002,17/03/2022 19:39:56,1647545996160,1,17/03/2022 20:39:56,73265,15,task-59ft,,20513040,BLIND,6070227,Intro Experiment: General explanations,complete,,,computer,Desktop or Laptop,Windows 10,Chrome 99.0.4844.51,1366x768,1366x657,Part 1 completed,Colors_Only_Dutch,6,Part 1 completed,,Accuracy_level_1,480.8999996185303,/task/320040/6/asset/pink.png,,,,image-keyboard-response,16,22860,0.0-1.0-1.7,,1,test, ,0.6066666666666667,1,0.2179
1,1646742707501,08/03/2022 12:31:47,1646742707398,1,08/03/2022 13:31:47,73265,15,task-59ft,,20186168,BLIND,5972970,Intro Experiment: General explanations,complete,,,computer,Desktop or Laptop,Mac OS 10.15.7,Safari 14.1.2,1440x900,1440x820,Part 1 completed,Colors_Only_Dutch,6,Part 1 completed,,Accuracy_level_1,9848,,,,,instructions,0,9852,0.0-0.0,,,,,,,
2,1646742707564,08/03/2022 12:31:47,1646742707507,1,08/03/2022 13:31:47,73265,15,task-59ft,,20186168,BLIND,5972970,Intro Experiment: General explanations,complete,,,computer,Desktop or Laptop,Mac OS 10.15.7,Safari 14.1.2,1440x900,1440x820,Part 1 completed,Colors_Only_Dutch,6,Part 1 completed,,Accuracy_level_1,,"<div style=""font-size:60px;"">  </div>",,,,html-keyboard-response,1,9961,0.0-1.0-0.0,,,,,,,
3,1646742709074,08/03/2022 12:31:49,1646742709013,1,08/03/2022 13:31:49,73265,15,task-59ft,,20186168,BLIND,5972970,Intro Experiment: General explanations,complete,,,computer,Desktop or Laptop,Mac OS 10.15.7,Safari 14.1.2,1440x900,1440x820,Part 1 completed,Colors_Only_Dutch,6,Part 1 completed,,Accuracy_level_1,,/task/320040/6/asset/pink.png,,,,image-keyboard-response,2,11466,0.0-1.0-1.0,,1,test, ,0,,0.026916666666666665
4,1646742709157,08/03/2022 12:31:49,1646742709118,1,08/03/2022 13:31:49,73265,15,task-59ft,,20186168,BLIND,5972970,Intro Experiment: General explanations,complete,,,computer,Desktop or Laptop,Mac OS 10.15.7,Safari 14.1.2,1440x900,1440x820,Part 1 completed,Colors_Only_Dutch,6,Part 1 completed,,Accuracy_level_1,,"<div style=""font-size:60px;"">  </div>",,,,html-keyboard-response,3,11572,0.0-1.0-0.1,,,,,,,
5,1646742710692,08/03/2022 12:31:50,1646742710625,1,08/03/2022 13:31:50,73265,15,task-59ft,,20186168,BLIND,5972970,Intro Experiment: General explanations,complete,,,computer,Desktop or Laptop,Mac OS 10.15.7,Safari 14.1.2,1440x900,1440x820,Part 1 completed,Colors_Only_Dutch,6,Part 1 completed,,Accuracy_level_1,485,/task/320040/6/asset/pink.png,,,,image-keyboard-response,4,13078,0.0-1.0-1.1,,1,test, ,0.43333333333333335,1,0.053783333333333336
6,1646742710761,08/03/2022 12:31:50,1646742710729,1,08/03/2022 13:31:50,73265,15,task-59ft,,20186168,BLIND,5972970,Intro Experiment: General explanations,complete,,,computer,Desktop or Laptop,Mac OS 10.15.7,Safari 14.1.2,1440x900,1440x820,Part 1 completed,Colors_Only_Dutch,6,Part 1 completed,,Accuracy_level_1,,"<div style=""font-size:60px;"">  </div>",,,,html-keyboard-response,5,13183,0.0-1.0-0.2,,,,,,,
7,1646742712286,08/03/2022 12:31:52,1646742712235,1,08/03/2022 13:31:52,73265,15,task-59ft,,20186168,BLIND,5972970,Intro Experiment: General explanations,complete,,,computer,Desktop or Laptop,Mac OS 10.15.7,Safari 14.1.2,1440x900,1440x820,Part 1 completed,Colors_Only_Dutch,6,Part 1 completed,,Accuracy_level_1,441,/task/320040/6/asset/pink.png,,,,image-keyboard-response,6,14689,0.0-1.0-1.2,,1,test, ,0.52,1,0.08061666666666667
8,1646742712372,08/03/2022 12:31:52,1646742712340,1,08/03/2022 13:31:52,73265,15,task-59ft,,20186168,BLIND,5972970,Intro Experiment: General explanations,complete,,,computer,Desktop or Laptop,Mac OS 10.15.7,Safari 14.1.2,1440x900,1440x820,Part 1 completed,Colors_Only_Dutch,6,Part 1 completed,,Accuracy_level_1,,"<div style=""font-size:60px;"">  </div>",,,,html-keyboard-response,7,14794,0.0-1.0-0.3,,,,,,,
9,1646742714008,08/03/2022 12:31:54,1646742713847,1,08/03/2022 13:31:53,73265,15,task-59ft,,20186168,BLIND,5972970,Intro Experiment: General explanations,complete,,,computer,Desktop or Laptop,Mac OS 10.15.7,Safari 14.1.2,1440x900,1440x820,Part 1 completed,Colors_Only_Dutch,6,Part 1 completed,,Accuracy_level_1,553,/task/320040/6/asset/pink.png,,,,image-keyboard-response,8,16300,0.0-1.0-1.3,,1,test, ,0.5571428571428572,1,0.10748333333333333
10,1646742714117,08/03/2022 12:31:54,1646742713951,1,08/03/2022 13:31:53,73265,15,task-59ft,,20186168,BLIND,5972970,Intro Experiment: General explanations,complete,,,computer,Desktop or Laptop,Mac OS 10.15.7,Safari 14.1.2,1440x900,1440x820,Part 1 completed,Colors_Only_Dutch,6,Part 1 completed,,Accuracy_level_1,,"<div style=""font-size:60px;"">  </div>",,,,html-keyboard-response,9,16405,0.0-1.0-0.4,,,,,,,
11,1646742715514,08/03/2022 12:31:55,1646742715456,1,08/03/2022 13:31:55,73265,15,task-59ft,,20186168,BLIND,5972970,Intro Experiment: General explanations,complete,,,computer,Desktop or Laptop,Mac OS 10.15.7,Safari 14.1.2,1440x900,1440x820,Part 1 completed,Colors_Only_Dutch,6,Part 1 completed,,Accuracy_level_1,542,/task/320040/6/asset/pink.png,,,,image-keyboard-response,10,17910,0.0-1.0-1.4,,1,test, ,0.5777777777777778,1,0.1343
12,1646742715590,08/03/2022 12:31:55,1646742715561,1,08/03/2022 13:31:55,73265,15,task-59ft,,20186168,BLIND,5972970,Intro Experiment: General explanations,complete,,,computer,Desktop or Laptop,Mac OS 10.15.7,Safari 14.1.2,1440x900,1440x820,Part 1 completed,Colors_Only_Dutch,6,Part 1 completed,,Accuracy_level_1,,"<div style=""font-size:60px;"">  </div>",,,,html-keyboard-response,11,18015,0.0-1.0-0.5,,,,,,,
13,1646742717108,08/03/2022 12:31:57,1646742717067,1,08/03/2022 13:31:57,73265,15,task-59ft,,20186168,BLIND,5972970,Intro Experiment: General explanations,complete,,,computer,Desktop or Laptop,Mac OS 10.15.7,Safari 14.1.2,1440x900,1440x820,Part 1 completed,Colors_Only_Dutch,6,Part 1 completed,,Accuracy_level_1,455,/task/320040/6/asset/pink.png,,,,image-keyboard-response,12,19521,0.0-1.0-1.5,,1,test, ,0.5909090909090909,1,0.16115
14,1646742717199,08/03/2022 12:31:57,1646742717171,1,08/03/2022 13:31:57,73265,15,task-59ft,,20186168,BLIND,5972970,Intro Experiment: General explanations,complete,,,computer,Desktop or Laptop,Mac OS 10.15.7,Safari 14.1.2,1440x900,1440x820,Part 1 completed,Colors_Only_Dutch,6,Part 1 completed,,Accuracy_level_1,,"<div style=""font-size:60px;"">  </div>",,,,html-keyboard-response,13,19625,0.0-1.0-0.6,,,,,,,
15,1646742718721,08/03/2022 12:31:58,1646742718676,1,08/03/2022 13:31:58,73265,15,task-59ft,,20186168,BLIND,5972970,Intro Experiment: General explanations,complete,,,computer,Desktop or Laptop,Mac OS 10.15.7,Safari 14.1.2,1440x900,1440x820,Part 1 completed,Colors_Only_Dutch,6,Part 1 completed,,Accuracy_level_1,495.99999999999636,/task/320040/6/asset/pink.png,,,,image-keyboard-response,14,21130,0.0-1.0-1.6,,1,test, ,0.6,1,0.18796666666666667
16,1646742718819,08/03/2022 12:31:58,1646742718781,1,08/03/2022 13:31:58,73265,15,task-59ft,,20186168,BLIND,5972970,Intro Experiment: General explanations,complete,,,computer,Desktop or Laptop,Mac OS 10.15.7,Safari 14.1.2,1440x900,1440x820,Part 1 completed,Colors_Only_Dutch,6,Part 1 completed,,Accuracy_level_1,,"<div style=""font-size:60px;"">  </div>",,,,html-keyboard-response,15,21235,0.0-1.0-0.7,,,,,,,
17,1646742720325,08/03/2022 12:32:00,1646742720287,1,08/03/2022 13:32:00,73265,15,task-59ft,,20186168,BLIND,5972970,Intro Experiment: General explanations,complete,,,computer,Desktop or Laptop,Mac OS 10.15.7,Safari 14.1.2,1440x900,1440x820,Part 1 completed,Colors_Only_Dutch,6,Part 1 completed,,Accuracy_level_1,667,/task/320040/6/asset/pink.png,,,,image-keyboard-response,16,22741,0.0-1.0-1.7,,1,test, ,0.6066666666666667,1,0.21481666666666666
1,1646739026858,08/03/2022 11:30:26,1646739020777,1,08/03/2022 12:30:20,73265,15,task-59ft,,20183934,BLIND,5973055,Intro Experiment: General explanations,complete,,,computer,Desktop or Laptop,Mac OS 10.15.7,Chrome 98.0.4758.102,1440x900,1440x821,Part 1 completed,Colors_Only_Dutch,6,Part 1 completed,,Accuracy_level_1,7593.800000071526,,,,,instructions,0,7597,0.0-0.0,,,,,,,
2,1646739026957,08/03/2022 11:30:26,1646739020894,1,08/03/2022 12:30:20,73265,15,task-59ft,,20183934,BLIND,5973055,Intro Experiment: General explanations,complete,,,computer,Desktop or Laptop,Mac OS 10.15.7,Chrome 98.0.4758.102,1440x900,1440x821,Part 1 completed,Colors_Only_Dutch,6,Part 1 completed,,Accuracy_level_1,,"<div style=""font-size:60px;"">  </div>",,,,html-keyboard-response,1,7713,0.0-1.0-0.0,,,,,,,
3,1646739028441,08/03/2022 11:30:28,1646739022399,1,08/03/2022 12:30:22,73265,15,task-59ft,,20183934,BLIND,5973055,Intro Experiment: General explanations,complete,,,computer,Desktop or Laptop,Mac OS 10.15.7,Chrome 98.0.4758.102,1440x900,1440x821,Part 1 completed,Colors_Only_Dutch,6,Part 1 completed,,Accuracy_level_1,,/task/320040/6/asset/white.png,,,,image-keyboard-response,2,9218,0.0-1.0-1.0,,1,test, ,0,,0.027033333333333333
4,1646739028551,08/03/2022 11:30:28,1646739022505,1,08/03/2022 12:30:22,73265,15,task-59ft,,20183934,BLIND,5973055,Intro Experiment: General explanations,complete,,,computer,Desktop or Laptop,Mac OS 10.15.7,Chrome 98.0.4758.102,1440x900,1440x821,Part 1 completed,Colors_Only_Dutch,6,Part 1 completed,,Accuracy_level_1,,"<div style=""font-size:60px;"">  </div>",,,,html-keyboard-response,3,9325,0.0-1.0-0.1,,,,,,,
5,1646739030059,08/03/2022 11:30:30,1646739024009,1,08/03/2022 12:30:24,73265,15,task-59ft,,20183934,BLIND,5973055,Intro Experiment: General explanations,complete,,,computer,Desktop or Laptop,Mac OS 10.15.7,Chrome 98.0.4758.102,1440x900,1440x821,Part 1 completed,Colors_Only_Dutch,6,Part 1 completed,,Accuracy_level_1,611.2000000476837,/task/320040/6/asset/white.png,,,,image-keyboard-response,4,10829,0.0-1.0-1.1,,1,test, ,0.43333333333333335,1,0.05386666666666667
6,1646739030149,08/03/2022 11:30:30,1646739024111,1,08/03/2022 12:30:24,73265,15,task-59ft,,20183934,BLIND,5973055,Intro Experiment: General explanations,complete,,,computer,Desktop or Laptop,Mac OS 10.15.7,Chrome 98.0.4758.102,1440x900,1440x821,Part 1 completed,Colors_Only_Dutch,6,Part 1 completed,,Accuracy_level_1,,"<div style=""font-size:60px;"">  </div>",,,,html-keyboard-response,5,10931,0.0-1.0-0.2,,,,,,,
7,1646739031657,08/03/2022 11:30:31,1646739025614,1,08/03/2022 12:30:25,73265,15,task-59ft,,20183934,BLIND,5973055,Intro Experiment: General explanations,complete,,,computer,Desktop or Laptop,Mac OS 10.15.7,Chrome 98.0.4758.102,1440x900,1440x821,Part 1 completed,Colors_Only_Dutch,6,Part 1 completed,,Accuracy_level_1,364.2999999523163,/task/320040/6/asset/white.png,,,,image-keyboard-response,6,12434,0.0-1.0-1.2,,1,test, ,0.52,1,0.08061666666666667
8,1646739031779,08/03/2022 11:30:31,1646739025718,1,08/03/2022 12:30:25,73265,15,task-59ft,,20183934,BLIND,5973055,Intro Experiment: General explanations,complete,,,computer,Desktop or Laptop,Mac OS 10.15.7,Chrome 98.0.4758.102,1440x900,1440x821,Part 1 completed,Colors_Only_Dutch,6,Part 1 completed,,Accuracy_level_1,,"<div style=""font-size:60px;"">  </div>",,,,html-keyboard-response,7,12537,0.0-1.0-0.3,,,,,,,
9,1646739033264,08/03/2022 11:30:33,1646739027223,1,08/03/2022 12:30:27,73265,15,task-59ft,,20183934,BLIND,5973055,Intro Experiment: General explanations,complete,,,computer,Desktop or Laptop,Mac OS 10.15.7,Chrome 98.0.4758.102,1440x900,1440x821,Part 1 completed,Colors_Only_Dutch,6,Part 1 completed,,Accuracy_level_1,375.59999990463257,/task/320040/6/asset/white.png,,,,image-keyboard-response,8,14042,0.0-1.0-1.3,,1,test, ,0.5571428571428572,1,0.10743333333333334
10,1646739033372,08/03/2022 11:30:33,1646739027326,1,08/03/2022 12:30:27,73265,15,task-59ft,,20183934,BLIND,5973055,Intro Experiment: General explanations,complete,,,computer,Desktop or Laptop,Mac OS 10.15.7,Chrome 98.0.4758.102,1440x900,1440x821,Part 1 completed,Colors_Only_Dutch,6,Part 1 completed,,Accuracy_level_1,,"<div style=""font-size:60px;"">  </div>",,,,html-keyboard-response,9,14146,0.0-1.0-0.4,,,,,,,
11,1646739034872,08/03/2022 11:30:34,1646739028831,1,08/03/2022 12:30:28,73265,15,task-59ft,,20183934,BLIND,5973055,Intro Experiment: General explanations,complete,,,computer,Desktop or Laptop,Mac OS 10.15.7,Chrome 98.0.4758.102,1440x900,1440x821,Part 1 completed,Colors_Only_Dutch,6,Part 1 completed,,Accuracy_level_1,398.59999990463257,/task/320040/6/asset/white.png,,,,image-keyboard-response,10,15650,0.0-1.0-1.4,,1,test, ,0.5777777777777778,1,0.13423333333333334
12,1646739034982,08/03/2022 11:30:34,1646739028933,1,08/03/2022 12:30:28,73265,15,task-59ft,,20183934,BLIND,5973055,Intro Experiment: General explanations,complete,,,computer,Desktop or Laptop,Mac OS 10.15.7,Chrome 98.0.4758.102,1440x900,1440x821,Part 1 completed,Colors_Only_Dutch,6,Part 1 completed,,Accuracy_level_1,,"<div style=""font-size:60px;"">  </div>",,,,html-keyboard-response,11,15753,0.0-1.0-0.5,,,,,,,
13,1646739036482,08/03/2022 11:30:36,1646739030439,1,08/03/2022 12:30:30,73265,15,task-59ft,,20183934,BLIND,5973055,Intro Experiment: General explanations,complete,,,computer,Desktop or Laptop,Mac OS 10.15.7,Chrome 98.0.4758.102,1440x900,1440x821,Part 1 completed,Colors_Only_Dutch,6,Part 1 completed,,Accuracy_level_1,,/task/320040/6/asset/yellow.png,,,,image-keyboard-response,12,17258,0.0-1.0-1.5,,,test,,0.5909090909090909,1,0.16103333333333333
14,1646739036575,08/03/2022 11:30:36,1646739030542,1,08/03/2022 12:30:30,73265,15,task-59ft,,20183934,BLIND,5973055,Intro Experiment: General explanations,complete,,,computer,Desktop or Laptop,Mac OS 10.15.7,Chrome 98.0.4758.102,1440x900,1440x821,Part 1 completed,Colors_Only_Dutch,6,Part 1 completed,,Accuracy_level_1,,"<div style=""font-size:60px;"">  </div>",,,,html-keyboard-response,13,17362,0.0-1.0-0.6,,,,,,,
