Event Index,UTC Timestamp,UTC Date,Local Timestamp,Local Timezone,Local Date,Experiment ID,Experiment Version,Tree Node Key,Repeat Key,Schedule ID,Participant Public ID,Participant Private ID,Participant Starting Group,Participant Status,Participant Completion Code,Participant External Session ID,Participant Device Type,Participant Device,Participant OS,Participant Browser,Participant Monitor Size,Participant Viewport Size,Checkpoint,Task Name,Task Version,checkpoint-yiku,checkpoint-gn26,randomiser-2vg5,Reaction Time,Stimulus,Key Press,Test Part,Correct Response,Trial Type,Trial Index,Time Elapsed,Internal Node ID,Correct,match,phase,correct_resp,prop_correct,accuracy_color_trial,minutes
1,1644855716438,14/02/2022 16:21:56,1644855703684,1,14/02/2022 17:21:43,73265,15,task-snpf,,19434145,BLIND,5767834,Intro Experiment: General explanations,complete,,,computer,Desktop or Laptop,Windows 10,Chrome 98.0.4758.82,1280x720,1280x601,Part 1 completed,Pics_Only_Dutch,5,,Part 1 completed,Accuracy_level_0.55,32656.5,,,,,instructions,0,32663,0.0-0.0,,,,,,,
2,1644855716530,14/02/2022 16:21:56,1644855703802,1,14/02/2022 17:21:43,73265,15,task-snpf,,19434145,BLIND,5767834,Intro Experiment: General explanations,complete,,,computer,Desktop or Laptop,Windows 10,Chrome 98.0.4758.82,1280x720,1280x601,Part 1 completed,Pics_Only_Dutch,5,,Part 1 completed,Accuracy_level_0.55,,"<div style=""font-size:60px;"">  </div>",,,,html-keyboard-response,1,32780,0.0-1.0-0.0,,,,,,,
3,1644855718191,14/02/2022 16:21:58,1644855705307,1,14/02/2022 17:21:45,73265,15,task-snpf,,19434145,BLIND,5767834,Intro Experiment: General explanations,complete,,,computer,Desktop or Laptop,Windows 10,Chrome 98.0.4758.82,1280x720,1280x601,Part 1 completed,Pics_Only_Dutch,5,,Part 1 completed,Accuracy_level_0.55,1090.3999998569489,/task/320041/5/asset/plane.jpg,,,f,image-keyboard-response,2,34285,0.0-1.0-1.0,,,test,,-0.175,,0.02705
4,1644855718264,14/02/2022 16:21:58,1644855705413,1,14/02/2022 17:21:45,73265,15,task-snpf,,19434145,BLIND,5767834,Intro Experiment: General explanations,complete,,,computer,Desktop or Laptop,Windows 10,Chrome 98.0.4758.82,1280x720,1280x601,Part 1 completed,Pics_Only_Dutch,5,,Part 1 completed,Accuracy_level_0.55,,"<div style=""font-size:60px;"">  </div>",,,,html-keyboard-response,3,34392,0.0-1.0-0.1,,,,,,,
5,1644855719618,14/02/2022 16:21:59,1644855706916,1,14/02/2022 17:21:46,73265,15,task-snpf,,19434145,BLIND,5767834,Intro Experiment: General explanations,complete,,,computer,Desktop or Laptop,Windows 10,Chrome 98.0.4758.82,1280x720,1280x601,Part 1 completed,Pics_Only_Dutch,5,,Part 1 completed,Accuracy_level_0.55,,/task/320041/5/asset/key.png,,,j,image-keyboard-response,4,35894,0.0-1.0-1.1,,,test,,-0.35,,0.05386666666666667
6,1644855719717,14/02/2022 16:21:59,1644855707032,1,14/02/2022 17:21:47,73265,15,task-snpf,,19434145,BLIND,5767834,Intro Experiment: General explanations,complete,,,computer,Desktop or Laptop,Windows 10,Chrome 98.0.4758.82,1280x720,1280x601,Part 1 completed,Pics_Only_Dutch,5,,Part 1 completed,Accuracy_level_0.55,,"<div style=""font-size:60px;"">  </div>",,,,html-keyboard-response,5,36011,0.0-1.1-0.2,,,,,,,
7,1644855721248,14/02/2022 16:22:01,1644855708537,1,14/02/2022 17:21:48,73265,15,task-snpf,,19434145,BLIND,5767834,Intro Experiment: General explanations,complete,,,computer,Desktop or Laptop,Windows 10,Chrome 98.0.4758.82,1280x720,1280x601,Part 1 completed,Pics_Only_Dutch,5,,Part 1 completed,Accuracy_level_0.55,754.6999998092651,/task/320041/5/asset/elephant.jpg,,,f,image-keyboard-response,6,37515,0.0-1.1-1.2,,,test,,,,0.08088333333333333
8,1644855721353,14/02/2022 16:22:01,1644855708668,1,14/02/2022 17:21:48,73265,15,task-snpf,,19434145,BLIND,5767834,Intro Experiment: General explanations,complete,,,computer,Desktop or Laptop,Windows 10,Chrome 98.0.4758.82,1280x720,1280x601,Part 1 completed,Pics_Only_Dutch,5,,Part 1 completed,Accuracy_level_0.55,,"<div style=""font-size:60px;"">  </div>",,,,html-keyboard-response,7,37647,0.0-1.1-0.3,,,,,,,
9,1644855722878,14/02/2022 16:22:02,1644855710172,1,14/02/2022 17:21:50,73265,15,task-snpf,,19434145,BLIND,5767834,Intro Experiment: General explanations,complete,,,computer,Desktop or Laptop,Windows 10,Chrome 98.0.4758.82,1280x720,1280x601,Part 1 completed,Pics_Only_Dutch,5,,Part 1 completed,Accuracy_level_0.55,823.2999999523163,/task/320041/5/asset/comb.jpg,,,j,image-keyboard-response,8,39151,0.0-1.1-1.3,,,test,,1.05,,0.10813333333333333
10,1644855722962,14/02/2022 16:22:02,1644855710276,1,14/02/2022 17:21:50,73265,15,task-snpf,,19434145,BLIND,5767834,Intro Experiment: General explanations,complete,,,computer,Desktop or Laptop,Windows 10,Chrome 98.0.4758.82,1280x720,1280x601,Part 1 completed,Pics_Only_Dutch,5,,Part 1 completed,Accuracy_level_0.55,,"<div style=""font-size:60px;"">  </div>",,,,html-keyboard-response,9,39255,0.0-1.2-0.4,,,,,,,
11,1644855724487,14/02/2022 16:22:04,1644855711781,1,14/02/2022 17:21:51,73265,15,task-snpf,,19434145,BLIND,5767834,Intro Experiment: General explanations,complete,,,computer,Desktop or Laptop,Windows 10,Chrome 98.0.4758.82,1280x720,1280x601,Part 1 completed,Pics_Only_Dutch,5,,Part 1 completed,Accuracy_level_0.55,499.7999999523163,/task/320041/5/asset/elephant.jpg,,,f,image-keyboard-response,10,40759,0.0-1.2-1.4,,,test,,0.7,,0.13495
12,1644855724572,14/02/2022 16:22:04,1644855711884,1,14/02/2022 17:21:51,73265,15,task-snpf,,19434145,BLIND,5767834,Intro Experiment: General explanations,complete,,,computer,Desktop or Laptop,Windows 10,Chrome 98.0.4758.82,1280x720,1280x601,Part 1 completed,Pics_Only_Dutch,5,,Part 1 completed,Accuracy_level_0.55,,"<div style=""font-size:60px;"">  </div>",,,,html-keyboard-response,11,40863,0.0-1.2-0.5,,,,,,,
13,1644855726088,14/02/2022 16:22:06,1644855713388,1,14/02/2022 17:21:53,73265,15,task-snpf,,19434145,BLIND,5767834,Intro Experiment: General explanations,complete,,,computer,Desktop or Laptop,Windows 10,Chrome 98.0.4758.82,1280x720,1280x601,Part 1 completed,Pics_Only_Dutch,5,,Part 1 completed,Accuracy_level_0.55,556.5,/task/320041/5/asset/plane.jpg,,,f,image-keyboard-response,12,42366,0.0-1.2-1.5,,,test,,0.5833333333333334,,0.16173333333333334
14,1644855726184,14/02/2022 16:22:06,1644855713491,1,14/02/2022 17:21:53,73265,15,task-snpf,,19434145,BLIND,5767834,Intro Experiment: General explanations,complete,,,computer,Desktop or Laptop,Windows 10,Chrome 98.0.4758.82,1280x720,1280x601,Part 1 completed,Pics_Only_Dutch,5,,Part 1 completed,Accuracy_level_0.55,,"<div style=""font-size:60px;"">  </div>",,,,html-keyboard-response,13,42470,0.0-1.3-0.6,,,,,,,
15,1644855727697,14/02/2022 16:22:07,1644855714996,1,14/02/2022 17:21:54,73265,15,task-snpf,,19434145,BLIND,5767834,Intro Experiment: General explanations,complete,,,computer,Desktop or Laptop,Windows 10,Chrome 98.0.4758.82,1280x720,1280x601,Part 1 completed,Pics_Only_Dutch,5,,Part 1 completed,Accuracy_level_0.55,918.7000000476837,/task/320041/5/asset/elephant.jpg,,,f,image-keyboard-response,14,43974,0.0-1.3-1.6,,,test,,0.525,,0.18853333333333333
16,1644855727793,14/02/2022 16:22:07,1644855715099,1,14/02/2022 17:21:55,73265,15,task-snpf,,19434145,BLIND,5767834,Intro Experiment: General explanations,complete,,,computer,Desktop or Laptop,Windows 10,Chrome 98.0.4758.82,1280x720,1280x601,Part 1 completed,Pics_Only_Dutch,5,,Part 1 completed,Accuracy_level_0.55,,"<div style=""font-size:60px;"">  </div>",,,,html-keyboard-response,15,44078,0.0-1.3-0.7,,,,,,,
17,1644855729293,14/02/2022 16:22:09,1644855716604,1,14/02/2022 17:21:56,73265,15,task-snpf,,19434145,BLIND,5767834,Intro Experiment: General explanations,complete,,,computer,Desktop or Laptop,Windows 10,Chrome 98.0.4758.82,1280x720,1280x601,Part 1 completed,Pics_Only_Dutch,5,,Part 1 completed,Accuracy_level_0.55,715.2000000476837,/task/320041/5/asset/plane.jpg,,,f,image-keyboard-response,16,45582,0.0-1.3-1.7,,,test,,0.49000000000000005,,0.21533333333333332
1,1644865117773,14/02/2022 18:58:37,1644865120883,1,14/02/2022 19:58:40,73265,15,task-snpf,,19440183,BLIND,5769482,Intro Experiment: General explanations,complete,,,computer,Desktop or Laptop,Windows 10,Firefox 97.0,1600x900,1600x775,Part 1 completed,Pics_Only_Dutch,5,,Part 1 completed,Accuracy_level_0.55,53121,,,,,instructions,0,53125,0.0-0.0,,,,,,,
2,1644865117871,14/02/2022 18:58:37,1644865120987,1,14/02/2022 19:58:40,73265,15,task-snpf,,19440183,BLIND,5769482,Intro Experiment: General explanations,complete,,,computer,Desktop or Laptop,Windows 10,Firefox 97.0,1600x900,1600x775,Part 1 completed,Pics_Only_Dutch,5,,Part 1 completed,Accuracy_level_0.55,,"<div style=""font-size:60px;"">  </div>",,,,html-keyboard-response,1,53228,0.0-1.0-0.0,,,,,,,
3,1644865119262,14/02/2022 18:58:39,1644865122497,1,14/02/2022 19:58:42,73265,15,task-snpf,,19440183,BLIND,5769482,Intro Experiment: General explanations,complete,,,computer,Desktop or Laptop,Windows 10,Firefox 97.0,1600x900,1600x775,Part 1 completed,Pics_Only_Dutch,5,,Part 1 completed,Accuracy_level_0.55,,/task/320041/5/asset/key.png,,,j,image-keyboard-response,2,54739,0.0-1.0-1.0,,,test,,0,,0.0269
4,1644865119360,14/02/2022 18:58:39,1644865122602,1,14/02/2022 19:58:42,73265,15,task-snpf,,19440183,BLIND,5769482,Intro Experiment: General explanations,complete,,,computer,Desktop or Laptop,Windows 10,Firefox 97.0,1600x900,1600x775,Part 1 completed,Pics_Only_Dutch,5,,Part 1 completed,Accuracy_level_0.55,,"<div style=""font-size:60px;"">  </div>",,,,html-keyboard-response,3,54843,0.0-1.0-0.1,,,,,,,
5,1644865120907,14/02/2022 18:58:40,1644865124123,1,14/02/2022 19:58:44,73265,15,task-snpf,,19440183,BLIND,5769482,Intro Experiment: General explanations,complete,,,computer,Desktop or Laptop,Windows 10,Firefox 97.0,1600x900,1600x775,Part 1 completed,Pics_Only_Dutch,5,,Part 1 completed,Accuracy_level_0.55,905,/task/320041/5/asset/house.jpg,,,f,image-keyboard-response,4,56364,0.0-1.0-1.1,,,test,,-0.35,,0.054
6,1644865120997,14/02/2022 18:58:40,1644865124229,1,14/02/2022 19:58:44,73265,15,task-snpf,,19440183,BLIND,5769482,Intro Experiment: General explanations,complete,,,computer,Desktop or Laptop,Windows 10,Firefox 97.0,1600x900,1600x775,Part 1 completed,Pics_Only_Dutch,5,,Part 1 completed,Accuracy_level_0.55,,"<div style=""font-size:60px;"">  </div>",,,,html-keyboard-response,5,56470,0.0-1.1-0.2,,,,,,,
7,1644865122504,14/02/2022 18:58:42,1644865125743,1,14/02/2022 19:58:45,73265,15,task-snpf,,19440183,BLIND,5769482,Intro Experiment: General explanations,complete,,,computer,Desktop or Laptop,Windows 10,Firefox 97.0,1600x900,1600x775,Part 1 completed,Pics_Only_Dutch,5,,Part 1 completed,Accuracy_level_0.55,909,/task/320041/5/asset/house.jpg,,,f,image-keyboard-response,6,57984,0.0-1.1-1.2,,,test,,,,0.08098333333333334
8,1644865122614,14/02/2022 18:58:42,1644865125849,1,14/02/2022 19:58:45,73265,15,task-snpf,,19440183,BLIND,5769482,Intro Experiment: General explanations,complete,,,computer,Desktop or Laptop,Windows 10,Firefox 97.0,1600x900,1600x775,Part 1 completed,Pics_Only_Dutch,5,,Part 1 completed,Accuracy_level_0.55,,"<div style=""font-size:60px;"">  </div>",,,,html-keyboard-response,7,58090,0.0-1.1-0.3,,,,,,,
9,1644865124118,14/02/2022 18:58:44,1644865127361,1,14/02/2022 19:58:47,73265,15,task-snpf,,19440183,BLIND,5769482,Intro Experiment: General explanations,complete,,,computer,Desktop or Laptop,Windows 10,Firefox 97.0,1600x900,1600x775,Part 1 completed,Pics_Only_Dutch,5,,Part 1 completed,Accuracy_level_0.55,825,/task/320041/5/asset/plane.jpg,,,f,image-keyboard-response,8,59603,0.0-1.1-1.3,,,test,,1.05,,0.10796666666666667
10,1644865124249,14/02/2022 18:58:44,1644865127482,1,14/02/2022 19:58:47,73265,15,task-snpf,,19440183,BLIND,5769482,Intro Experiment: General explanations,complete,,,computer,Desktop or Laptop,Windows 10,Firefox 97.0,1600x900,1600x775,Part 1 completed,Pics_Only_Dutch,5,,Part 1 completed,Accuracy_level_0.55,,"<div style=""font-size:60px;"">  </div>",,,,html-keyboard-response,9,59724,0.0-1.2-0.4,,,,,,,
11,1644865125768,14/02/2022 18:58:45,1644865129003,1,14/02/2022 19:58:49,73265,15,task-snpf,,19440183,BLIND,5769482,Intro Experiment: General explanations,complete,,,computer,Desktop or Laptop,Windows 10,Firefox 97.0,1600x900,1600x775,Part 1 completed,Pics_Only_Dutch,5,,Part 1 completed,Accuracy_level_0.55,,/task/320041/5/asset/key.png,,,j,image-keyboard-response,10,61244,0.0-1.2-1.4,,,test,,0.525,,0.13533333333333333
12,1644865125984,14/02/2022 18:58:45,1644865129225,1,14/02/2022 19:58:49,73265,15,task-snpf,,19440183,BLIND,5769482,Intro Experiment: General explanations,complete,,,computer,Desktop or Laptop,Windows 10,Firefox 97.0,1600x900,1600x775,Part 1 completed,Pics_Only_Dutch,5,,Part 1 completed,Accuracy_level_0.55,,"<span style=""color:red;font-size:50px;font-weight: bold;"">FOUT!</span>",,,,html-keyboard-response,11,61467,0.0-1.2-2.4-0.4,,,,,,,
13,1644865126098,14/02/2022 18:58:46,1644865129338,1,14/02/2022 19:58:49,73265,15,task-snpf,,19440183,BLIND,5769482,Intro Experiment: General explanations,complete,,,computer,Desktop or Laptop,Windows 10,Firefox 97.0,1600x900,1600x775,Part 1 completed,Pics_Only_Dutch,5,,Part 1 completed,Accuracy_level_0.55,,"<div style=""font-size:60px;"">  </div>",,,,html-keyboard-response,12,61579,0.0-1.2-0.5,,,,,,,
14,1644865127624,14/02/2022 18:58:47,1644865130852,1,14/02/2022 19:58:50,73265,15,task-snpf,,19440183,BLIND,5769482,Intro Experiment: General explanations,complete,,,computer,Desktop or Laptop,Windows 10,Firefox 97.0,1600x900,1600x775,Part 1 completed,Pics_Only_Dutch,5,,Part 1 completed,Accuracy_level_0.55,,/task/320041/5/asset/house.jpg,,,f,image-keyboard-response,13,63093,0.0-1.2-1.5,,,test,,0.3,,0.16615
15,1644865127837,14/02/2022 18:58:47,1644865131060,1,14/02/2022 19:58:51,73265,15,task-snpf,,19440183,BLIND,5769482,Intro Experiment: General explanations,complete,,,computer,Desktop or Laptop,Windows 10,Firefox 97.0,1600x900,1600x775,Part 1 completed,Pics_Only_Dutch,5,,Part 1 completed,Accuracy_level_0.55,,"<span style=""color:red;font-size:50px;font-weight: bold;"">FOUT!</span>",,,,html-keyboard-response,14,63302,0.0-1.2-2.5-0.5,,,,,,,
16,1644865127953,14/02/2022 18:58:47,1644865131177,1,14/02/2022 19:58:51,73265,15,task-snpf,,19440183,BLIND,5769482,Intro Experiment: General explanations,complete,,,computer,Desktop or Laptop,Windows 10,Firefox 97.0,1600x900,1600x775,Part 1 completed,Pics_Only_Dutch,5,,Part 1 completed,Accuracy_level_0.55,,"<div style=""font-size:60px;"">  </div>",,,,html-keyboard-response,15,63419,0.0-1.3-0.6,,,,,,,
17,1644865129452,14/02/2022 18:58:49,1644865132689,1,14/02/2022 19:58:52,73265,15,task-snpf,,19440183,BLIND,5769482,Intro Experiment: General explanations,complete,,,computer,Desktop or Laptop,Windows 10,Firefox 97.0,1600x900,1600x775,Part 1 completed,Pics_Only_Dutch,5,,Part 1 completed,Accuracy_level_0.55,1,/task/320041/5/asset/house.jpg,,,f,image-keyboard-response,16,64931,0.0-1.3-1.6,,,test,,0.27999999999999997,,0.19676666666666667
18,1644865129564,14/02/2022 18:58:49,1644865132808,1,14/02/2022 19:58:52,73265,15,task-snpf,,19440183,BLIND,5769482,Intro Experiment: General explanations,complete,,,computer,Desktop or Laptop,Windows 10,Firefox 97.0,1600x900,1600x775,Part 1 completed,Pics_Only_Dutch,5,,Part 1 completed,Accuracy_level_0.55,,"<div style=""font-size:60px;"">  </div>",,,,html-keyboard-response,17,65050,0.0-1.3-0.7,,,,,,,
19,1644865131084,14/02/2022 18:58:51,1644865134322,1,14/02/2022 19:58:54,73265,15,task-snpf,,19440183,BLIND,5769482,Intro Experiment: General explanations,complete,,,computer,Desktop or Laptop,Windows 10,Firefox 97.0,1600x900,1600x775,Part 1 completed,Pics_Only_Dutch,5,,Part 1 completed,Accuracy_level_0.55,706,/task/320041/5/asset/pear.jpg,,,j,image-keyboard-response,18,66564,0.0-1.3-1.7,,,test,,0.2916666666666667,,0.22398333333333334
1,1647508904813,17/03/2022 09:21:44,1647508904700,1,17/03/2022 10:21:44,73265,15,task-snpf,,20484860,BLIND,6062612,Intro Experiment: General explanations,complete,,,computer,Desktop or Laptop,Mac OS 10.15.7,Safari 14.0,1440x900,1440x837,Part 1 completed,Pics_Only_Dutch,5,,Part 1 completed,Accuracy_level_0.55,34880,,,,,instructions,0,34897,0.0-0.0,,,,,,,
2,1647508904901,17/03/2022 09:21:44,1647508904805,1,17/03/2022 10:21:44,73265,15,task-snpf,,20484860,BLIND,6062612,Intro Experiment: General explanations,complete,,,computer,Desktop or Laptop,Mac OS 10.15.7,Safari 14.0,1440x900,1440x837,Part 1 completed,Pics_Only_Dutch,5,,Part 1 completed,Accuracy_level_0.55,,"<div style=""font-size:60px;"">  </div>",,,,html-keyboard-response,1,35002,0.0-1.0-0.0,,,,,,,
3,1647508906363,17/03/2022 09:21:46,1647508906318,1,17/03/2022 10:21:46,73265,15,task-snpf,,20484860,BLIND,6062612,Intro Experiment: General explanations,complete,,,computer,Desktop or Laptop,Mac OS 10.15.7,Safari 14.0,1440x900,1440x837,Part 1 completed,Pics_Only_Dutch,5,,Part 1 completed,Accuracy_level_0.55,1260,/task/320041/5/asset/pear.jpg,,,j,image-keyboard-response,2,36514,0.0-1.0-1.0,,,test,,-0.175,,0.026966666666666667
4,1647508906766,17/03/2022 09:21:46,1647508906421,1,17/03/2022 10:21:46,73265,15,task-snpf,,20484860,BLIND,6062612,Intro Experiment: General explanations,complete,,,computer,Desktop or Laptop,Mac OS 10.15.7,Safari 14.0,1440x900,1440x837,Part 1 completed,Pics_Only_Dutch,5,,Part 1 completed,Accuracy_level_0.55,,"<div style=""font-size:60px;"">  </div>",,,,html-keyboard-response,3,36618,0.0-1.0-0.1,,,,,,,
5,1647508907963,17/03/2022 09:21:47,1647508907924,1,17/03/2022 10:21:47,73265,15,task-snpf,,20484860,BLIND,6062612,Intro Experiment: General explanations,complete,,,computer,Desktop or Laptop,Mac OS 10.15.7,Safari 14.0,1440x900,1440x837,Part 1 completed,Pics_Only_Dutch,5,,Part 1 completed,Accuracy_level_0.55,,/task/320041/5/asset/key.png,,,j,image-keyboard-response,4,38121,0.0-1.0-1.1,,,test,,-0.35,,0.053733333333333334
6,1647508908348,17/03/2022 09:21:48,1647508908028,1,17/03/2022 10:21:48,73265,15,task-snpf,,20484860,BLIND,6062612,Intro Experiment: General explanations,complete,,,computer,Desktop or Laptop,Mac OS 10.15.7,Safari 14.0,1440x900,1440x837,Part 1 completed,Pics_Only_Dutch,5,,Part 1 completed,Accuracy_level_0.55,,"<div style=""font-size:60px;"">  </div>",,,,html-keyboard-response,5,38225,0.0-1.1-0.2,,,,,,,
7,1647508909848,17/03/2022 09:21:49,1647508909532,1,17/03/2022 10:21:49,73265,15,task-snpf,,20484860,BLIND,6062612,Intro Experiment: General explanations,complete,,,computer,Desktop or Laptop,Mac OS 10.15.7,Safari 14.0,1440x900,1440x837,Part 1 completed,Pics_Only_Dutch,5,,Part 1 completed,Accuracy_level_0.55,825,/task/320041/5/asset/house.jpg,,,f,image-keyboard-response,6,39729,0.0-1.1-1.2,,,test,,,,0.08053333333333333
8,1647508909911,17/03/2022 09:21:49,1647508909635,1,17/03/2022 10:21:49,73265,15,task-snpf,,20484860,BLIND,6062612,Intro Experiment: General explanations,complete,,,computer,Desktop or Laptop,Mac OS 10.15.7,Safari 14.0,1440x900,1440x837,Part 1 completed,Pics_Only_Dutch,5,,Part 1 completed,Accuracy_level_0.55,,"<div style=""font-size:60px;"">  </div>",,,,html-keyboard-response,7,39832,0.0-1.1-0.3,,,,,,,
9,1647508911180,17/03/2022 09:21:51,1647508911143,1,17/03/2022 10:21:51,73265,15,task-snpf,,20484860,BLIND,6062612,Intro Experiment: General explanations,complete,,,computer,Desktop or Laptop,Mac OS 10.15.7,Safari 14.0,1440x900,1440x837,Part 1 completed,Pics_Only_Dutch,5,,Part 1 completed,Accuracy_level_0.55,447,/task/320041/5/asset/pear.jpg,,,j,image-keyboard-response,8,41340,0.0-1.1-1.3,,,test,,1.05,,0.10738333333333333
10,1647508911336,17/03/2022 09:21:51,1647508911247,1,17/03/2022 10:21:51,73265,15,task-snpf,,20484860,BLIND,6062612,Intro Experiment: General explanations,complete,,,computer,Desktop or Laptop,Mac OS 10.15.7,Safari 14.0,1440x900,1440x837,Part 1 completed,Pics_Only_Dutch,5,,Part 1 completed,Accuracy_level_0.55,,"<div style=""font-size:60px;"">  </div>",,,,html-keyboard-response,9,41444,0.0-1.2-0.4,,,,,,,
11,1647508912789,17/03/2022 09:21:52,1647508912750,1,17/03/2022 10:21:52,73265,15,task-snpf,,20484860,BLIND,6062612,Intro Experiment: General explanations,complete,,,computer,Desktop or Laptop,Mac OS 10.15.7,Safari 14.0,1440x900,1440x837,Part 1 completed,Pics_Only_Dutch,5,,Part 1 completed,Accuracy_level_0.55,841,/task/320041/5/asset/elephant.jpg,,,f,image-keyboard-response,10,42947,0.0-1.2-1.4,,,test,,0.7,,0.13416666666666666
12,1647508912880,17/03/2022 09:21:52,1647508912853,1,17/03/2022 10:21:52,73265,15,task-snpf,,20484860,BLIND,6062612,Intro Experiment: General explanations,complete,,,computer,Desktop or Laptop,Mac OS 10.15.7,Safari 14.0,1440x900,1440x837,Part 1 completed,Pics_Only_Dutch,5,,Part 1 completed,Accuracy_level_0.55,,"<div style=""font-size:60px;"">  </div>",,,,html-keyboard-response,11,43050,0.0-1.2-0.5,,,,,,,
13,1647508914400,17/03/2022 09:21:54,1647508914357,1,17/03/2022 10:21:54,73265,15,task-snpf,,20484860,BLIND,6062612,Intro Experiment: General explanations,complete,,,computer,Desktop or Laptop,Mac OS 10.15.7,Safari 14.0,1440x900,1440x837,Part 1 completed,Pics_Only_Dutch,5,,Part 1 completed,Accuracy_level_0.55,723,/task/320041/5/asset/glass.jpg,,,j,image-keyboard-response,12,44553,0.0-1.2-1.5,,,test,,0.5833333333333334,,0.16095
14,1647508914525,17/03/2022 09:21:54,1647508914459,1,17/03/2022 10:21:54,73265,15,task-snpf,,20484860,BLIND,6062612,Intro Experiment: General explanations,complete,,,computer,Desktop or Laptop,Mac OS 10.15.7,Safari 14.0,1440x900,1440x837,Part 1 completed,Pics_Only_Dutch,5,,Part 1 completed,Accuracy_level_0.55,,"<div style=""font-size:60px;"">  </div>",,,,html-keyboard-response,13,44656,0.0-1.3-0.6,,,,,,,
15,1647508916004,17/03/2022 09:21:56,1647508915963,1,17/03/2022 10:21:55,73265,15,task-snpf,,20484860,BLIND,6062612,Intro Experiment: General explanations,complete,,,computer,Desktop or Laptop,Mac OS 10.15.7,Safari 14.0,1440x900,1440x837,Part 1 completed,Pics_Only_Dutch,5,,Part 1 completed,Accuracy_level_0.55,758,/task/320041/5/asset/comb.jpg,,,j,image-keyboard-response,14,46159,0.0-1.3-1.6,,,test,,0.525,,0.18771666666666667
16,1647508916101,17/03/2022 09:21:56,1647508916066,1,17/03/2022 10:21:56,73265,15,task-snpf,,20484860,BLIND,6062612,Intro Experiment: General explanations,complete,,,computer,Desktop or Laptop,Mac OS 10.15.7,Safari 14.0,1440x900,1440x837,Part 1 completed,Pics_Only_Dutch,5,,Part 1 completed,Accuracy_level_0.55,,"<div style=""font-size:60px;"">  </div>",,,,html-keyboard-response,15,46263,0.0-1.3-0.7,,,,,,,
17,1647508917609,17/03/2022 09:21:57,1647508917571,1,17/03/2022 10:21:57,73265,15,task-snpf,,20484860,BLIND,6062612,Intro Experiment: General explanations,complete,,,computer,Desktop or Laptop,Mac OS 10.15.7,Safari 14.0,1440x900,1440x837,Part 1 completed,Pics_Only_Dutch,5,,Part 1 completed,Accuracy_level_0.55,583,/task/320041/5/asset/elephant.jpg,,,f,image-keyboard-response,16,47767,0.0-1.3-1.7,,,test,,0.49000000000000005,,0.2145
1,1647787601955,20/03/2022 14:46:41,1647787600371,1,20/03/2022 15:46:40,73265,15,task-snpf,,20578255,BLIND,6099386,Intro Experiment: General explanations,complete,,,computer,Desktop or Laptop,Windows 10,Chrome 99.0.4844.51,1536x864,1536x722,Part 1 completed,Pics_Only_Dutch,5,,Part 1 completed,Accuracy_level_0.55,73164.10000002384,,,,,instructions,0,73170,0.0-0.0,,,,,,,
2,1647787602135,20/03/2022 14:46:42,1647787600493,1,20/03/2022 15:46:40,73265,15,task-snpf,,20578255,BLIND,6099386,Intro Experiment: General explanations,complete,,,computer,Desktop or Laptop,Windows 10,Chrome 99.0.4844.51,1536x864,1536x722,Part 1 completed,Pics_Only_Dutch,5,,Part 1 completed,Accuracy_level_0.55,,"<div style=""font-size:60px;"">  </div>",,,,html-keyboard-response,1,73293,0.0-1.0-0.0,,,,,,,
3,1647787603503,20/03/2022 14:46:43,1647787601996,1,20/03/2022 15:46:41,73265,15,task-snpf,,20578255,BLIND,6099386,Intro Experiment: General explanations,complete,,,computer,Desktop or Laptop,Windows 10,Chrome 99.0.4844.51,1536x864,1536x722,Part 1 completed,Pics_Only_Dutch,5,,Part 1 completed,Accuracy_level_0.55,,/task/320041/5/asset/elephant.jpg,,,f,image-keyboard-response,2,74795,0.0-1.0-1.0,,,test,,0,,0.0271
4,1647787603619,20/03/2022 14:46:43,1647787602099,1,20/03/2022 15:46:42,73265,15,task-snpf,,20578255,BLIND,6099386,Intro Experiment: General explanations,complete,,,computer,Desktop or Laptop,Windows 10,Chrome 99.0.4844.51,1536x864,1536x722,Part 1 completed,Pics_Only_Dutch,5,,Part 1 completed,Accuracy_level_0.55,,"<div style=""font-size:60px;"">  </div>",,,,html-keyboard-response,3,74899,0.0-1.0-0.1,,,,,,,
5,1647787605118,20/03/2022 14:46:45,1647787603601,1,20/03/2022 15:46:43,73265,15,task-snpf,,20578255,BLIND,6099386,Intro Experiment: General explanations,complete,,,computer,Desktop or Laptop,Windows 10,Chrome 99.0.4844.51,1536x864,1536x722,Part 1 completed,Pics_Only_Dutch,5,,Part 1 completed,Accuracy_level_0.55,214.30000007152557,/task/320041/5/asset/truck.jpg,,,f,image-keyboard-response,4,76401,0.0-1.0-1.1,,,test,,-0.35,,0.05385
6,1647787605221,20/03/2022 14:46:45,1647787603705,1,20/03/2022 15:46:43,73265,15,task-snpf,,20578255,BLIND,6099386,Intro Experiment: General explanations,complete,,,computer,Desktop or Laptop,Windows 10,Chrome 99.0.4844.51,1536x864,1536x722,Part 1 completed,Pics_Only_Dutch,5,,Part 1 completed,Accuracy_level_0.55,,"<div style=""font-size:60px;"">  </div>",,,,html-keyboard-response,5,76505,0.0-1.1-0.2,,,,,,,
7,1647787606712,20/03/2022 14:46:46,1647787605208,1,20/03/2022 15:46:45,73265,15,task-snpf,,20578255,BLIND,6099386,Intro Experiment: General explanations,complete,,,computer,Desktop or Laptop,Windows 10,Chrome 99.0.4844.51,1536x864,1536x722,Part 1 completed,Pics_Only_Dutch,5,,Part 1 completed,Accuracy_level_0.55,995.8999999761581,/task/320041/5/asset/house.jpg,,,f,image-keyboard-response,6,78008,0.0-1.1-1.2,,,test,,,,0.08063333333333333
8,1647787606820,20/03/2022 14:46:46,1647787605310,1,20/03/2022 15:46:45,73265,15,task-snpf,,20578255,BLIND,6099386,Intro Experiment: General explanations,complete,,,computer,Desktop or Laptop,Windows 10,Chrome 99.0.4844.51,1536x864,1536x722,Part 1 completed,Pics_Only_Dutch,5,,Part 1 completed,Accuracy_level_0.55,,"<div style=""font-size:60px;"">  </div>",,,,html-keyboard-response,7,78110,0.0-1.1-0.3,,,,,,,
9,1647787608321,20/03/2022 14:46:48,1647787606815,1,20/03/2022 15:46:46,73265,15,task-snpf,,20578255,BLIND,6099386,Intro Experiment: General explanations,complete,,,computer,Desktop or Laptop,Windows 10,Chrome 99.0.4844.51,1536x864,1536x722,Part 1 completed,Pics_Only_Dutch,5,,Part 1 completed,Accuracy_level_0.55,569,/task/320041/5/asset/house.jpg,,,f,image-keyboard-response,8,79615,0.0-1.1-1.3,,,test,,1.05,,0.10741666666666666
10,1647787608445,20/03/2022 14:46:48,1647787606917,1,20/03/2022 15:46:46,73265,15,task-snpf,,20578255,BLIND,6099386,Intro Experiment: General explanations,complete,,,computer,Desktop or Laptop,Windows 10,Chrome 99.0.4844.51,1536x864,1536x722,Part 1 completed,Pics_Only_Dutch,5,,Part 1 completed,Accuracy_level_0.55,,"<div style=""font-size:60px;"">  </div>",,,,html-keyboard-response,9,79717,0.0-1.2-0.4,,,,,,,
11,1647787610009,20/03/2022 14:46:50,1647787608421,1,20/03/2022 15:46:48,73265,15,task-snpf,,20578255,BLIND,6099386,Intro Experiment: General explanations,complete,,,computer,Desktop or Laptop,Windows 10,Chrome 99.0.4844.51,1536x864,1536x722,Part 1 completed,Pics_Only_Dutch,5,,Part 1 completed,Accuracy_level_0.55,718,/task/320041/5/asset/elephant.jpg,,,f,image-keyboard-response,10,81221,0.0-1.2-1.4,,,test,,0.7,,0.13418333333333332
12,1647787610226,20/03/2022 14:46:50,1647787608525,1,20/03/2022 15:46:48,73265,15,task-snpf,,20578255,BLIND,6099386,Intro Experiment: General explanations,complete,,,computer,Desktop or Laptop,Windows 10,Chrome 99.0.4844.51,1536x864,1536x722,Part 1 completed,Pics_Only_Dutch,5,,Part 1 completed,Accuracy_level_0.55,,"<div style=""font-size:60px;"">  </div>",,,,html-keyboard-response,11,81325,0.0-1.2-0.5,,,,,,,
13,1647787611527,20/03/2022 14:46:51,1647787610028,1,20/03/2022 15:46:50,73265,15,task-snpf,,20578255,BLIND,6099386,Intro Experiment: General explanations,complete,,,computer,Desktop or Laptop,Windows 10,Chrome 99.0.4844.51,1536x864,1536x722,Part 1 completed,Pics_Only_Dutch,5,,Part 1 completed,Accuracy_level_0.55,687.7999999523163,/task/320041/5/asset/truck.jpg,,,f,image-keyboard-response,12,82827,0.0-1.2-1.5,,,test,,0.5833333333333334,,0.16096666666666667
14,1647787611664,20/03/2022 14:46:51,1647787610131,1,20/03/2022 15:46:50,73265,15,task-snpf,,20578255,BLIND,6099386,Intro Experiment: General explanations,complete,,,computer,Desktop or Laptop,Windows 10,Chrome 99.0.4844.51,1536x864,1536x722,Part 1 completed,Pics_Only_Dutch,5,,Part 1 completed,Accuracy_level_0.55,,"<div style=""font-size:60px;"">  </div>",,,,html-keyboard-response,13,82931,0.0-1.3-0.6,,,,,,,
15,1647787613154,20/03/2022 14:46:53,1647787611634,1,20/03/2022 15:46:51,73265,15,task-snpf,,20578255,BLIND,6099386,Intro Experiment: General explanations,complete,,,computer,Desktop or Laptop,Windows 10,Chrome 99.0.4844.51,1536x864,1536x722,Part 1 completed,Pics_Only_Dutch,5,,Part 1 completed,Accuracy_level_0.55,1074.3000000715256,/task/320041/5/asset/glass.jpg,,,j,image-keyboard-response,14,84433,0.0-1.3-1.6,,,test,,0.525,,0.18773333333333334
16,1647787613262,20/03/2022 14:46:53,1647787611736,1,20/03/2022 15:46:51,73265,15,task-snpf,,20578255,BLIND,6099386,Intro Experiment: General explanations,complete,,,computer,Desktop or Laptop,Windows 10,Chrome 99.0.4844.51,1536x864,1536x722,Part 1 completed,Pics_Only_Dutch,5,,Part 1 completed,Accuracy_level_0.55,,"<div style=""font-size:60px;"">  </div>",,,,html-keyboard-response,15,84536,0.0-1.3-0.7,,,,,,,
17,1647787614746,20/03/2022 14:46:54,1647787613238,1,20/03/2022 15:46:53,73265,15,task-snpf,,20578255,BLIND,6099386,Intro Experiment: General explanations,complete,,,computer,Desktop or Laptop,Windows 10,Chrome 99.0.4844.51,1536x864,1536x722,Part 1 completed,Pics_Only_Dutch,5,,Part 1 completed,Accuracy_level_0.55,,/task/320041/5/asset/key.png,,,j,image-keyboard-response,16,86038,0.0-1.3-1.7,,,test,,0.42000000000000004,,0.21446666666666667
18,1647787614961,20/03/2022 14:46:54,1647787613440,1,20/03/2022 15:46:53,73265,15,task-snpf,,20578255,BLIND,6099386,Intro Experiment: General explanations,complete,,,computer,Desktop or Laptop,Windows 10,Chrome 99.0.4844.51,1536x864,1536x722,Part 1 completed,Pics_Only_Dutch,5,,Part 1 completed,Accuracy_level_0.55,,"<span style=""color:red;font-size:50px;font-weight: bold;"">FOUT!</span>",,,,html-keyboard-response,17,86240,0.0-1.3-2.7-0.7,,,,,,,
1,1647520194201,17/03/2022 12:29:54,1647520193532,1,17/03/2022 13:29:53,73265,15,task-snpf,,20492486,BLIND,6077360,Intro Experiment: General explanations,complete,,,computer,Desktop or Laptop,Windows 10,Chrome 99.0.4844.51,1536x864,1536x754,Part 1 completed,Pics_Only_Dutch,5,,Part 1 completed,Accuracy_level_0.55,77321.7999997139,,,,,instructions,0,77324,0.0-0.0,,,,,,,
2,1647520194324,17/03/2022 12:29:54,1647520193642,1,17/03/2022 13:29:53,73265,15,task-snpf,,20492486,BLIND,6077360,Intro Experiment: General explanations,complete,,,computer,Desktop or Laptop,Windows 10,Chrome 99.0.4844.51,1536x864,1536x754,Part 1 completed,Pics_Only_Dutch,5,,Part 1 completed,Accuracy_level_0.55,,"<div style=""font-size:60px;"">  </div>",,,,html-keyboard-response,1,77435,0.0-1.0-0.0,,,,,,,
3,1647520195746,17/03/2022 12:29:55,1647520195147,1,17/03/2022 13:29:55,73265,15,task-snpf,,20492486,BLIND,6077360,Intro Experiment: General explanations,complete,,,computer,Desktop or Laptop,Windows 10,Chrome 99.0.4844.51,1536x864,1536x754,Part 1 completed,Pics_Only_Dutch,5,,Part 1 completed,Accuracy_level_0.55,1173.6999998092651,/task/320041/5/asset/elephant.jpg,,,f,image-keyboard-response,2,78939,0.0-1.0-1.0,,,test,,-0.175,,0.026916666666666665
4,1647520195842,17/03/2022 12:29:55,1647520195251,1,17/03/2022 13:29:55,73265,15,task-snpf,,20492486,BLIND,6077360,Intro Experiment: General explanations,complete,,,computer,Desktop or Laptop,Windows 10,Chrome 99.0.4844.51,1536x864,1536x754,Part 1 completed,Pics_Only_Dutch,5,,Part 1 completed,Accuracy_level_0.55,,"<div style=""font-size:60px;"">  </div>",,,,html-keyboard-response,3,79044,0.0-1.0-0.1,,,,,,,
5,1647520197351,17/03/2022 12:29:57,1647520196754,1,17/03/2022 13:29:56,73265,15,task-snpf,,20492486,BLIND,6077360,Intro Experiment: General explanations,complete,,,computer,Desktop or Laptop,Windows 10,Chrome 99.0.4844.51,1536x864,1536x754,Part 1 completed,Pics_Only_Dutch,5,,Part 1 completed,Accuracy_level_0.55,847.2999997138977,/task/320041/5/asset/glass.jpg,,,j,image-keyboard-response,4,80547,0.0-1.0-1.1,,,test,,-0.7,,0.0537
6,1647520197468,17/03/2022 12:29:57,1647520196858,1,17/03/2022 13:29:56,73265,15,task-snpf,,20492486,BLIND,6077360,Intro Experiment: General explanations,complete,,,computer,Desktop or Laptop,Windows 10,Chrome 99.0.4844.51,1536x864,1536x754,Part 1 completed,Pics_Only_Dutch,5,,Part 1 completed,Accuracy_level_0.55,,"<div style=""font-size:60px;"">  </div>",,,,html-keyboard-response,5,80651,0.0-1.1-0.2,,,,,,,
7,1647520198969,17/03/2022 12:29:58,1647520198362,1,17/03/2022 13:29:58,73265,15,task-snpf,,20492486,BLIND,6077360,Intro Experiment: General explanations,complete,,,computer,Desktop or Laptop,Windows 10,Chrome 99.0.4844.51,1536x864,1536x754,Part 1 completed,Pics_Only_Dutch,5,,Part 1 completed,Accuracy_level_0.55,553.9000000953674,/task/320041/5/asset/truck.jpg,,,f,image-keyboard-response,6,82155,0.0-1.1-1.2,,,test,,,,0.0805
8,1647520199054,17/03/2022 12:29:59,1647520198465,1,17/03/2022 13:29:58,73265,15,task-snpf,,20492486,BLIND,6077360,Intro Experiment: General explanations,complete,,,computer,Desktop or Laptop,Windows 10,Chrome 99.0.4844.51,1536x864,1536x754,Part 1 completed,Pics_Only_Dutch,5,,Part 1 completed,Accuracy_level_0.55,,"<div style=""font-size:60px;"">  </div>",,,,html-keyboard-response,7,82258,0.0-1.1-0.3,,,,,,,
9,1647520200581,17/03/2022 12:30:00,1647520199968,1,17/03/2022 13:29:59,73265,15,task-snpf,,20492486,BLIND,6077360,Intro Experiment: General explanations,complete,,,computer,Desktop or Laptop,Windows 10,Chrome 99.0.4844.51,1536x864,1536x754,Part 1 completed,Pics_Only_Dutch,5,,Part 1 completed,Accuracy_level_0.55,599.5,/task/320041/5/asset/glass.jpg,,,j,image-keyboard-response,8,83761,0.0-1.1-1.3,,,test,,1.4,,0.10726666666666666
10,1647520200709,17/03/2022 12:30:00,1647520200071,1,17/03/2022 13:30:00,73265,15,task-snpf,,20492486,BLIND,6077360,Intro Experiment: General explanations,complete,,,computer,Desktop or Laptop,Windows 10,Chrome 99.0.4844.51,1536x864,1536x754,Part 1 completed,Pics_Only_Dutch,5,,Part 1 completed,Accuracy_level_0.55,,"<div style=""font-size:60px;"">  </div>",,,,html-keyboard-response,9,83864,0.0-1.2-0.4,,,,,,,
11,1647520202151,17/03/2022 12:30:02,1647520201573,1,17/03/2022 13:30:01,73265,15,task-snpf,,20492486,BLIND,6077360,Intro Experiment: General explanations,complete,,,computer,Desktop or Laptop,Windows 10,Chrome 99.0.4844.51,1536x864,1536x754,Part 1 completed,Pics_Only_Dutch,5,,Part 1 completed,Accuracy_level_0.55,452.90000009536743,/task/320041/5/asset/elephant.jpg,,,f,image-keyboard-response,10,85366,0.0-1.2-1.4,,,test,,0.875,,0.13401666666666667
12,1647520202268,17/03/2022 12:30:02,1647520201676,1,17/03/2022 13:30:01,73265,15,task-snpf,,20492486,BLIND,6077360,Intro Experiment: General explanations,complete,,,computer,Desktop or Laptop,Windows 10,Chrome 99.0.4844.51,1536x864,1536x754,Part 1 completed,Pics_Only_Dutch,5,,Part 1 completed,Accuracy_level_0.55,,"<div style=""font-size:60px;"">  </div>",,,,html-keyboard-response,11,85469,0.0-1.2-0.5,,,,,,,
13,1647520203760,17/03/2022 12:30:03,1647520203180,1,17/03/2022 13:30:03,73265,15,task-snpf,,20492486,BLIND,6077360,Intro Experiment: General explanations,complete,,,computer,Desktop or Laptop,Windows 10,Chrome 99.0.4844.51,1536x864,1536x754,Part 1 completed,Pics_Only_Dutch,5,,Part 1 completed,Accuracy_level_0.55,,/task/320041/5/asset/key.png,,,j,image-keyboard-response,12,86973,0.0-1.2-1.5,,,test,,0.5833333333333334,,0.1608
14,1647520203957,17/03/2022 12:30:03,1647520203383,1,17/03/2022 13:30:03,73265,15,task-snpf,,20492486,BLIND,6077360,Intro Experiment: General explanations,complete,,,computer,Desktop or Laptop,Windows 10,Chrome 99.0.4844.51,1536x864,1536x754,Part 1 completed,Pics_Only_Dutch,5,,Part 1 completed,Accuracy_level_0.55,,"<span style=""color:red;font-size:50px;font-weight: bold;"">FOUT!</span>",,,,html-keyboard-response,13,87176,0.0-1.2-2.5-0.5,,,,,,,
15,1647520204084,17/03/2022 12:30:04,1647520203486,1,17/03/2022 13:30:03,73265,15,task-snpf,,20492486,BLIND,6077360,Intro Experiment: General explanations,complete,,,computer,Desktop or Laptop,Windows 10,Chrome 99.0.4844.51,1536x864,1536x754,Part 1 completed,Pics_Only_Dutch,5,,Part 1 completed,Accuracy_level_0.55,,"<div style=""font-size:60px;"">  </div>",,,,html-keyboard-response,14,87279,0.0-1.3-0.6,,,,,,,
16,1647520205579,17/03/2022 12:30:05,1647520204988,1,17/03/2022 13:30:04,73265,15,task-snpf,,20492486,BLIND,6077360,Intro Experiment: General explanations,complete,,,computer,Desktop or Laptop,Windows 10,Chrome 99.0.4844.51,1536x864,1536x754,Part 1 completed,Pics_Only_Dutch,5,,Part 1 completed,Accuracy_level_0.55,,/task/320041/5/asset/elephant.jpg,,,f,image-keyboard-response,15,88781,0.0-1.3-1.6,,,test,,0.3888888888888889,,0.19093333333333334
17,1647520205795,17/03/2022 12:30:05,1647520205200,1,17/03/2022 13:30:05,73265,15,task-snpf,,20492486,BLIND,6077360,Intro Experiment: General explanations,complete,,,computer,Desktop or Laptop,Windows 10,Chrome 99.0.4844.51,1536x864,1536x754,Part 1 completed,Pics_Only_Dutch,5,,Part 1 completed,Accuracy_level_0.55,,"<span style=""color:red;font-size:50px;font-weight: bold;"">FOUT!</span>",,,,html-keyboard-response,16,88992,0.0-1.3-2.6-0.6,,,,,,,
18,1647520205881,17/03/2022 12:30:05,1647520205303,1,17/03/2022 13:30:05,73265,15,task-snpf,,20492486,BLIND,6077360,Intro Experiment: General explanations,complete,,,computer,Desktop or Laptop,Windows 10,Chrome 99.0.4844.51,1536x864,1536x754,Part 1 completed,Pics_Only_Dutch,5,,Part 1 completed,Accuracy_level_0.55,,"<div style=""font-size:60px;"">  </div>",,,,html-keyboard-response,17,89096,0.0-1.3-0.7,,,,,,,
19,1647520207396,17/03/2022 12:30:07,1647520206807,1,17/03/2022 13:30:06,73265,15,task-snpf,,20492486,BLIND,6077360,Intro Experiment: General explanations,complete,,,computer,Desktop or Laptop,Windows 10,Chrome 99.0.4844.51,1536x864,1536x754,Part 1 completed,Pics_Only_Dutch,5,,Part 1 completed,Accuracy_level_0.55,442.2999997138977,/task/320041/5/asset/elephant.jpg,,,f,image-keyboard-response,18,90600,0.0-1.3-1.7,,,test,,0.35000000000000003,,0.22125
1,1647347517460,15/03/2022 12:31:57,1647347517200,1,15/03/2022 13:31:57,73265,15,task-snpf,,20400542,BLIND,6052332,Intro Experiment: General explanations,complete,,,computer,Desktop or Laptop,Mac OS 10.15.7,Safari 15.1,1440x900,1440x820,Part 1 completed,Pics_Only_Dutch,5,,Part 1 completed,Accuracy_level_0.55,46362,,,,,instructions,0,46364,0.0-0.0,,,,,,,
2,1647347517555,15/03/2022 12:31:57,1647347517306,1,15/03/2022 13:31:57,73265,15,task-snpf,,20400542,BLIND,6052332,Intro Experiment: General explanations,complete,,,computer,Desktop or Laptop,Mac OS 10.15.7,Safari 15.1,1440x900,1440x820,Part 1 completed,Pics_Only_Dutch,5,,Part 1 completed,Accuracy_level_0.55,,"<div style=""font-size:60px;"">  </div>",,,,html-keyboard-response,1,46471,0.0-1.0-0.0,,,,,,,
3,1647347519012,15/03/2022 12:31:59,1647347518812,1,15/03/2022 13:31:58,73265,15,task-snpf,,20400542,BLIND,6052332,Intro Experiment: General explanations,complete,,,computer,Desktop or Laptop,Mac OS 10.15.7,Safari 15.1,1440x900,1440x820,Part 1 completed,Pics_Only_Dutch,5,,Part 1 completed,Accuracy_level_0.55,1068.9999999999927,/task/320041/5/asset/plane.jpg,,,f,image-keyboard-response,2,47976,0.0-1.0-1.0,,,test,,-0.175,,0.026866666666666667
4,1647347519122,15/03/2022 12:31:59,1647347518915,1,15/03/2022 13:31:58,73265,15,task-snpf,,20400542,BLIND,6052332,Intro Experiment: General explanations,complete,,,computer,Desktop or Laptop,Mac OS 10.15.7,Safari 15.1,1440x900,1440x820,Part 1 completed,Pics_Only_Dutch,5,,Part 1 completed,Accuracy_level_0.55,,"<div style=""font-size:60px;"">  </div>",,,,html-keyboard-response,3,48080,0.0-1.0-0.1,,,,,,,
5,1647347520631,15/03/2022 12:32:00,1647347520418,1,15/03/2022 13:32:00,73265,15,task-snpf,,20400542,BLIND,6052332,Intro Experiment: General explanations,complete,,,computer,Desktop or Laptop,Mac OS 10.15.7,Safari 15.1,1440x900,1440x820,Part 1 completed,Pics_Only_Dutch,5,,Part 1 completed,Accuracy_level_0.55,827,/task/320041/5/asset/house.jpg,,,f,image-keyboard-response,4,49583,0.0-1.0-1.1,,,test,,-0.7,,0.05363333333333333
6,1647347520748,15/03/2022 12:32:00,1647347520524,1,15/03/2022 13:32:00,73265,15,task-snpf,,20400542,BLIND,6052332,Intro Experiment: General explanations,complete,,,computer,Desktop or Laptop,Mac OS 10.15.7,Safari 15.1,1440x900,1440x820,Part 1 completed,Pics_Only_Dutch,5,,Part 1 completed,Accuracy_level_0.55,,"<div style=""font-size:60px;"">  </div>",,,,html-keyboard-response,5,49689,0.0-1.1-0.2,,,,,,,
7,1647347522233,15/03/2022 12:32:02,1647347522031,1,15/03/2022 13:32:02,73265,15,task-snpf,,20400542,BLIND,6052332,Intro Experiment: General explanations,complete,,,computer,Desktop or Laptop,Mac OS 10.15.7,Safari 15.1,1440x900,1440x820,Part 1 completed,Pics_Only_Dutch,5,,Part 1 completed,Accuracy_level_0.55,,/task/320041/5/asset/key.png,,,j,image-keyboard-response,6,51196,0.0-1.1-1.2,,,test,,,,0.08051666666666667
8,1647347522436,15/03/2022 12:32:02,1647347522237,1,15/03/2022 13:32:02,73265,15,task-snpf,,20400542,BLIND,6052332,Intro Experiment: General explanations,complete,,,computer,Desktop or Laptop,Mac OS 10.15.7,Safari 15.1,1440x900,1440x820,Part 1 completed,Pics_Only_Dutch,5,,Part 1 completed,Accuracy_level_0.55,,"<span style=""color:red;font-size:50px;font-weight: bold;"">FOUT!</span>",,,,html-keyboard-response,7,51402,0.0-1.1-2.2-0.2,,,,,,,
9,1647347522546,15/03/2022 12:32:02,1647347522342,1,15/03/2022 13:32:02,73265,15,task-snpf,,20400542,BLIND,6052332,Intro Experiment: General explanations,complete,,,computer,Desktop or Laptop,Mac OS 10.15.7,Safari 15.1,1440x900,1440x820,Part 1 completed,Pics_Only_Dutch,5,,Part 1 completed,Accuracy_level_0.55,,"<div style=""font-size:60px;"">  </div>",,,,html-keyboard-response,8,51507,0.0-1.1-0.3,,,,,,,
10,1647347524055,15/03/2022 12:32:04,1647347523848,1,15/03/2022 13:32:03,73265,15,task-snpf,,20400542,BLIND,6052332,Intro Experiment: General explanations,complete,,,computer,Desktop or Laptop,Mac OS 10.15.7,Safari 15.1,1440x900,1440x820,Part 1 completed,Pics_Only_Dutch,5,,Part 1 completed,Accuracy_level_0.55,822,/task/320041/5/asset/pear.jpg,,,j,image-keyboard-response,9,53013,0.0-1.1-1.3,,,test,,0.7000000000000001,,0.1108
11,1647347524148,15/03/2022 12:32:04,1647347523955,1,15/03/2022 13:32:03,73265,15,task-snpf,,20400542,BLIND,6052332,Intro Experiment: General explanations,complete,,,computer,Desktop or Laptop,Mac OS 10.15.7,Safari 15.1,1440x900,1440x820,Part 1 completed,Pics_Only_Dutch,5,,Part 1 completed,Accuracy_level_0.55,,"<div style=""font-size:60px;"">  </div>",,,,html-keyboard-response,10,53120,0.0-1.2-0.4,,,,,,,
12,1647347525672,15/03/2022 12:32:05,1647347525474,1,15/03/2022 13:32:05,73265,15,task-snpf,,20400542,BLIND,6052332,Intro Experiment: General explanations,complete,,,computer,Desktop or Laptop,Mac OS 10.15.7,Safari 15.1,1440x900,1440x820,Part 1 completed,Pics_Only_Dutch,5,,Part 1 completed,Accuracy_level_0.55,603,/task/320041/5/asset/house.jpg,,,f,image-keyboard-response,11,54638,0.0-1.2-1.4,,,test,,0.5599999999999999,,0.1379
13,1647347525773,15/03/2022 12:32:05,1647347525581,1,15/03/2022 13:32:05,73265,15,task-snpf,,20400542,BLIND,6052332,Intro Experiment: General explanations,complete,,,computer,Desktop or Laptop,Mac OS 10.15.7,Safari 15.1,1440x900,1440x820,Part 1 completed,Pics_Only_Dutch,5,,Part 1 completed,Accuracy_level_0.55,,"<div style=""font-size:60px;"">  </div>",,,,html-keyboard-response,12,54745,0.0-1.2-0.5,,,,,,,
14,1647347527290,15/03/2022 12:32:07,1647347527086,1,15/03/2022 13:32:07,73265,15,task-snpf,,20400542,BLIND,6052332,Intro Experiment: General explanations,complete,,,computer,Desktop or Laptop,Mac OS 10.15.7,Safari 15.1,1440x900,1440x820,Part 1 completed,Pics_Only_Dutch,5,,Part 1 completed,Accuracy_level_0.55,1147,/task/320041/5/asset/comb.jpg,,,j,image-keyboard-response,13,56251,0.0-1.2-1.5,,,test,,0.39999999999999997,,0.16476666666666667
15,1647347527492,15/03/2022 12:32:07,1647347527291,1,15/03/2022 13:32:07,73265,15,task-snpf,,20400542,BLIND,6052332,Intro Experiment: General explanations,complete,,,computer,Desktop or Laptop,Mac OS 10.15.7,Safari 15.1,1440x900,1440x820,Part 1 completed,Pics_Only_Dutch,5,,Part 1 completed,Accuracy_level_0.55,,"<span style=""color:red;font-size:50px;font-weight: bold;"">FOUT!</span>",,,,html-keyboard-response,14,56456,0.0-1.2-2.5-0.5,,,,,,,
16,1647347527594,15/03/2022 12:32:07,1647347527397,1,15/03/2022 13:32:07,73265,15,task-snpf,,20400542,BLIND,6052332,Intro Experiment: General explanations,complete,,,computer,Desktop or Laptop,Mac OS 10.15.7,Safari 15.1,1440x900,1440x820,Part 1 completed,Pics_Only_Dutch,5,,Part 1 completed,Accuracy_level_0.55,,"<div style=""font-size:60px;"">  </div>",,,,html-keyboard-response,15,56562,0.0-1.3-0.6,,,,,,,
17,1647347529102,15/03/2022 12:32:09,1647347528916,1,15/03/2022 13:32:08,73265,15,task-snpf,,20400542,BLIND,6052332,Intro Experiment: General explanations,complete,,,computer,Desktop or Laptop,Mac OS 10.15.7,Safari 15.1,1440x900,1440x820,Part 1 completed,Pics_Only_Dutch,5,,Part 1 completed,Accuracy_level_0.55,684,/task/320041/5/asset/comb.jpg,,,j,image-keyboard-response,16,58081,0.0-1.3-1.6,,,test,,0.35,,0.19526666666666667
18,1647347529209,15/03/2022 12:32:09,1647347529019,1,15/03/2022 13:32:09,73265,15,task-snpf,,20400542,BLIND,6052332,Intro Experiment: General explanations,complete,,,computer,Desktop or Laptop,Mac OS 10.15.7,Safari 15.1,1440x900,1440x820,Part 1 completed,Pics_Only_Dutch,5,,Part 1 completed,Accuracy_level_0.55,,"<div style=""font-size:60px;"">  </div>",,,,html-keyboard-response,17,58184,0.0-1.3-0.7,,,,,,,
19,1647347530725,15/03/2022 12:32:10,1647347530523,1,15/03/2022 13:32:10,73265,15,task-snpf,,20400542,BLIND,6052332,Intro Experiment: General explanations,complete,,,computer,Desktop or Laptop,Mac OS 10.15.7,Safari 15.1,1440x900,1440x820,Part 1 completed,Pics_Only_Dutch,5,,Part 1 completed,Accuracy_level_0.55,641,/task/320041/5/asset/house.jpg,,,f,image-keyboard-response,18,59687,0.0-1.3-1.7,,,test,,0.35000000000000003,,0.22205
1,1647255023228,14/03/2022 10:50:23,1647255021953,1,14/03/2022 11:50:21,73265,15,task-snpf,,20358996,BLIND,6038054,Intro Experiment: General explanations,complete,,,computer,Desktop or Laptop,Mac OS 10.15.7,Chrome 99.0.4844.51,1440x900,1440x789,Part 1 completed,Pics_Only_Dutch,5,,Part 1 completed,Accuracy_level_0.55,42817.5,,,,,instructions,0,42821,0.0-0.0,,,,,,,
2,1647255023307,14/03/2022 10:50:23,1647255022080,1,14/03/2022 11:50:22,73265,15,task-snpf,,20358996,BLIND,6038054,Intro Experiment: General explanations,complete,,,computer,Desktop or Laptop,Mac OS 10.15.7,Chrome 99.0.4844.51,1440x900,1440x789,Part 1 completed,Pics_Only_Dutch,5,,Part 1 completed,Accuracy_level_0.55,,"<div style=""font-size:60px;"">  </div>",,,,html-keyboard-response,1,42950,0.0-1.0-0.0,,,,,,,
3,1647255024795,14/03/2022 10:50:24,1647255023586,1,14/03/2022 11:50:23,73265,15,task-snpf,,20358996,BLIND,6038054,Intro Experiment: General explanations,complete,,,computer,Desktop or Laptop,Mac OS 10.15.7,Chrome 99.0.4844.51,1440x900,1440x789,Part 1 completed,Pics_Only_Dutch,5,,Part 1 completed,Accuracy_level_0.55,825,/task/320041/5/asset/comb.jpg,,,j,image-keyboard-response,2,44455,0.0-1.0-1.0,,,test,,-0.175,,0.02723333333333333
4,1647255024896,14/03/2022 10:50:24,1647255023691,1,14/03/2022 11:50:23,73265,15,task-snpf,,20358996,BLIND,6038054,Intro Experiment: General explanations,complete,,,computer,Desktop or Laptop,Mac OS 10.15.7,Chrome 99.0.4844.51,1440x900,1440x789,Part 1 completed,Pics_Only_Dutch,5,,Part 1 completed,Accuracy_level_0.55,,"<div style=""font-size:60px;"">  </div>",,,,html-keyboard-response,3,44561,0.0-1.0-0.1,,,,,,,
5,1647255026372,14/03/2022 10:50:26,1647255025196,1,14/03/2022 11:50:25,73265,15,task-snpf,,20358996,BLIND,6038054,Intro Experiment: General explanations,complete,,,computer,Desktop or Laptop,Mac OS 10.15.7,Chrome 99.0.4844.51,1440x900,1440x789,Part 1 completed,Pics_Only_Dutch,5,,Part 1 completed,Accuracy_level_0.55,,/task/320041/5/asset/key.png,,,j,image-keyboard-response,4,46065,0.0-1.0-1.1,,,test,,-0.35,,0.054066666666666666
6,1647255026467,14/03/2022 10:50:26,1647255025301,1,14/03/2022 11:50:25,73265,15,task-snpf,,20358996,BLIND,6038054,Intro Experiment: General explanations,complete,,,computer,Desktop or Laptop,Mac OS 10.15.7,Chrome 99.0.4844.51,1440x900,1440x789,Part 1 completed,Pics_Only_Dutch,5,,Part 1 completed,Accuracy_level_0.55,,"<div style=""font-size:60px;"">  </div>",,,,html-keyboard-response,5,46171,0.0-1.1-0.2,,,,,,,
7,1647255027983,14/03/2022 10:50:27,1647255026806,1,14/03/2022 11:50:26,73265,15,task-snpf,,20358996,BLIND,6038054,Intro Experiment: General explanations,complete,,,computer,Desktop or Laptop,Mac OS 10.15.7,Chrome 99.0.4844.51,1440x900,1440x789,Part 1 completed,Pics_Only_Dutch,5,,Part 1 completed,Accuracy_level_0.55,698.7000000476837,/task/320041/5/asset/plane.jpg,,,f,image-keyboard-response,6,47676,0.0-1.1-1.2,,,test,,,,0.0809
8,1647255028076,14/03/2022 10:50:28,1647255026911,1,14/03/2022 11:50:26,73265,15,task-snpf,,20358996,BLIND,6038054,Intro Experiment: General explanations,complete,,,computer,Desktop or Laptop,Mac OS 10.15.7,Chrome 99.0.4844.51,1440x900,1440x789,Part 1 completed,Pics_Only_Dutch,5,,Part 1 completed,Accuracy_level_0.55,,"<div style=""font-size:60px;"">  </div>",,,,html-keyboard-response,7,47781,0.0-1.1-0.3,,,,,,,
9,1647255029613,14/03/2022 10:50:29,1647255028416,1,14/03/2022 11:50:28,73265,15,task-snpf,,20358996,BLIND,6038054,Intro Experiment: General explanations,complete,,,computer,Desktop or Laptop,Mac OS 10.15.7,Chrome 99.0.4844.51,1440x900,1440x789,Part 1 completed,Pics_Only_Dutch,5,,Part 1 completed,Accuracy_level_0.55,746.1999999880791,/task/320041/5/asset/glass.jpg,,,j,image-keyboard-response,8,49286,0.0-1.1-1.3,,,test,,1.05,,0.10773333333333333
10,1647255029687,14/03/2022 10:50:29,1647255028521,1,14/03/2022 11:50:28,73265,15,task-snpf,,20358996,BLIND,6038054,Intro Experiment: General explanations,complete,,,computer,Desktop or Laptop,Mac OS 10.15.7,Chrome 99.0.4844.51,1440x900,1440x789,Part 1 completed,Pics_Only_Dutch,5,,Part 1 completed,Accuracy_level_0.55,,"<div style=""font-size:60px;"">  </div>",,,,html-keyboard-response,9,49391,0.0-1.2-0.4,,,,,,,
11,1647255031206,14/03/2022 10:50:31,1647255030027,1,14/03/2022 11:50:30,73265,15,task-snpf,,20358996,BLIND,6038054,Intro Experiment: General explanations,complete,,,computer,Desktop or Laptop,Mac OS 10.15.7,Chrome 99.0.4844.51,1440x900,1440x789,Part 1 completed,Pics_Only_Dutch,5,,Part 1 completed,Accuracy_level_0.55,677.8000000119209,/task/320041/5/asset/elephant.jpg,,,f,image-keyboard-response,10,50897,0.0-1.2-1.4,,,test,,0.7,,0.13458333333333333
12,1647255031302,14/03/2022 10:50:31,1647255030132,1,14/03/2022 11:50:30,73265,15,task-snpf,,20358996,BLIND,6038054,Intro Experiment: General explanations,complete,,,computer,Desktop or Laptop,Mac OS 10.15.7,Chrome 99.0.4844.51,1440x900,1440x789,Part 1 completed,Pics_Only_Dutch,5,,Part 1 completed,Accuracy_level_0.55,,"<div style=""font-size:60px;"">  </div>",,,,html-keyboard-response,11,51002,0.0-1.2-0.5,,,,,,,
13,1647255032810,14/03/2022 10:50:32,1647255031636,1,14/03/2022 11:50:31,73265,15,task-snpf,,20358996,BLIND,6038054,Intro Experiment: General explanations,complete,,,computer,Desktop or Laptop,Mac OS 10.15.7,Chrome 99.0.4844.51,1440x900,1440x789,Part 1 completed,Pics_Only_Dutch,5,,Part 1 completed,Accuracy_level_0.55,993.4000000357628,/task/320041/5/asset/pear.jpg,,,j,image-keyboard-response,12,52506,0.0-1.2-1.5,,,test,,0.5833333333333334,,0.1614
14,1647255032910,14/03/2022 10:50:32,1647255031741,1,14/03/2022 11:50:31,73265,15,task-snpf,,20358996,BLIND,6038054,Intro Experiment: General explanations,complete,,,computer,Desktop or Laptop,Mac OS 10.15.7,Chrome 99.0.4844.51,1440x900,1440x789,Part 1 completed,Pics_Only_Dutch,5,,Part 1 completed,Accuracy_level_0.55,,"<div style=""font-size:60px;"">  </div>",,,,html-keyboard-response,13,52611,0.0-1.3-0.6,,,,,,,
15,1647255034423,14/03/2022 10:50:34,1647255033248,1,14/03/2022 11:50:33,73265,15,task-snpf,,20358996,BLIND,6038054,Intro Experiment: General explanations,complete,,,computer,Desktop or Laptop,Mac OS 10.15.7,Chrome 99.0.4844.51,1440x900,1440x789,Part 1 completed,Pics_Only_Dutch,5,,Part 1 completed,Accuracy_level_0.55,672.6000000238419,/task/320041/5/asset/truck.jpg,,,f,image-keyboard-response,14,54118,0.0-1.3-1.6,,,test,,0.525,,0.18826666666666667
16,1647255034532,14/03/2022 10:50:34,1647255033354,1,14/03/2022 11:50:33,73265,15,task-snpf,,20358996,BLIND,6038054,Intro Experiment: General explanations,complete,,,computer,Desktop or Laptop,Mac OS 10.15.7,Chrome 99.0.4844.51,1440x900,1440x789,Part 1 completed,Pics_Only_Dutch,5,,Part 1 completed,Accuracy_level_0.55,,"<div style=""font-size:60px;"">  </div>",,,,html-keyboard-response,15,54223,0.0-1.3-0.7,,,,,,,
17,1647255036029,14/03/2022 10:50:36,1647255034859,1,14/03/2022 11:50:34,73265,15,task-snpf,,20358996,BLIND,6038054,Intro Experiment: General explanations,complete,,,computer,Desktop or Laptop,Mac OS 10.15.7,Chrome 99.0.4844.51,1440x900,1440x789,Part 1 completed,Pics_Only_Dutch,5,,Part 1 completed,Accuracy_level_0.55,469.9000000357628,/task/320041/5/asset/truck.jpg,,,f,image-keyboard-response,16,55729,0.0-1.3-1.7,,,test,,0.49000000000000005,,0.21511666666666668
1,1647100898083,12/03/2022 16:01:38,1647100897955,1,12/03/2022 17:01:37,73265,15,task-snpf,,20323902,BLIND,6028207,Intro Experiment: General explanations,complete,,,computer,Desktop or Laptop,Mac OS 10.15.6,Safari 15.3,820x1180,1180x713,Part 1 completed,Pics_Only_Dutch,5,,Part 1 completed,Accuracy_level_0.55,54523.00000000001,,,,,instructions,0,54526,0.0-0.0,,,,,,,
2,1647100898161,12/03/2022 16:01:38,1647100898061,1,12/03/2022 17:01:38,73265,15,task-snpf,,20323902,BLIND,6028207,Intro Experiment: General explanations,complete,,,computer,Desktop or Laptop,Mac OS 10.15.6,Safari 15.3,820x1180,1180x713,Part 1 completed,Pics_Only_Dutch,5,,Part 1 completed,Accuracy_level_0.55,,"<div style=""font-size:60px;"">  </div>",,,,html-keyboard-response,1,54633,0.0-1.0-0.0,,,,,,,
3,1647100899673,12/03/2022 16:01:39,1647100899570,1,12/03/2022 17:01:39,73265,15,task-snpf,,20323902,BLIND,6028207,Intro Experiment: General explanations,complete,,,computer,Desktop or Laptop,Mac OS 10.15.6,Safari 15.3,820x1180,1180x713,Part 1 completed,Pics_Only_Dutch,5,,Part 1 completed,Accuracy_level_0.55,,/task/320041/5/asset/comb.jpg,,,j,image-keyboard-response,2,56140,0.0-1.0-1.0,,,test,,0,,0.026916666666666665
4,1647100899751,12/03/2022 16:01:39,1647100899678,1,12/03/2022 17:01:39,73265,15,task-snpf,,20323902,BLIND,6028207,Intro Experiment: General explanations,complete,,,computer,Desktop or Laptop,Mac OS 10.15.6,Safari 15.3,820x1180,1180x713,Part 1 completed,Pics_Only_Dutch,5,,Part 1 completed,Accuracy_level_0.55,,"<div style=""font-size:60px;"">  </div>",,,,html-keyboard-response,3,56250,0.0-1.0-0.1,,,,,,,
5,1647100901318,12/03/2022 16:01:41,1647100901187,1,12/03/2022 17:01:41,73265,15,task-snpf,,20323902,BLIND,6028207,Intro Experiment: General explanations,complete,,,computer,Desktop or Laptop,Mac OS 10.15.6,Safari 15.3,820x1180,1180x713,Part 1 completed,Pics_Only_Dutch,5,,Part 1 completed,Accuracy_level_0.55,901,/task/320041/5/asset/comb.jpg,,,j,image-keyboard-response,4,57759,0.0-1.0-1.1,,,test,,-0.35,,0.05386666666666667
6,1647100901401,12/03/2022 16:01:41,1647100901297,1,12/03/2022 17:01:41,73265,15,task-snpf,,20323902,BLIND,6028207,Intro Experiment: General explanations,complete,,,computer,Desktop or Laptop,Mac OS 10.15.6,Safari 15.3,820x1180,1180x713,Part 1 completed,Pics_Only_Dutch,5,,Part 1 completed,Accuracy_level_0.55,,"<div style=""font-size:60px;"">  </div>",,,,html-keyboard-response,5,57868,0.0-1.1-0.2,,,,,,,
7,1647100902878,12/03/2022 16:01:42,1647100902802,1,12/03/2022 17:01:42,73265,15,task-snpf,,20323902,BLIND,6028207,Intro Experiment: General explanations,complete,,,computer,Desktop or Laptop,Mac OS 10.15.6,Safari 15.3,820x1180,1180x713,Part 1 completed,Pics_Only_Dutch,5,,Part 1 completed,Accuracy_level_0.55,346,/task/320041/5/asset/comb.jpg,,,j,image-keyboard-response,6,59374,0.0-1.1-1.2,,,test,,,,0.08078333333333333
8,1647100903010,12/03/2022 16:01:43,1647100902910,1,12/03/2022 17:01:42,73265,15,task-snpf,,20323902,BLIND,6028207,Intro Experiment: General explanations,complete,,,computer,Desktop or Laptop,Mac OS 10.15.6,Safari 15.3,820x1180,1180x713,Part 1 completed,Pics_Only_Dutch,5,,Part 1 completed,Accuracy_level_0.55,,"<div style=""font-size:60px;"">  </div>",,,,html-keyboard-response,7,59482,0.0-1.1-0.3,,,,,,,
9,1647100904494,12/03/2022 16:01:44,1647100904418,1,12/03/2022 17:01:44,73265,15,task-snpf,,20323902,BLIND,6028207,Intro Experiment: General explanations,complete,,,computer,Desktop or Laptop,Mac OS 10.15.6,Safari 15.3,820x1180,1180x713,Part 1 completed,Pics_Only_Dutch,5,,Part 1 completed,Accuracy_level_0.55,714,/task/320041/5/asset/house.jpg,,,f,image-keyboard-response,8,60990,0.0-1.1-1.3,,,test,,1.05,,0.10771666666666667
10,1647100904597,12/03/2022 16:01:44,1647100904527,1,12/03/2022 17:01:44,73265,15,task-snpf,,20323902,BLIND,6028207,Intro Experiment: General explanations,complete,,,computer,Desktop or Laptop,Mac OS 10.15.6,Safari 15.3,820x1180,1180x713,Part 1 completed,Pics_Only_Dutch,5,,Part 1 completed,Accuracy_level_0.55,,"<div style=""font-size:60px;"">  </div>",,,,html-keyboard-response,9,61098,0.0-1.2-0.4,,,,,,,
11,1647100906159,12/03/2022 16:01:46,1647100906034,1,12/03/2022 17:01:46,73265,15,task-snpf,,20323902,BLIND,6028207,Intro Experiment: General explanations,complete,,,computer,Desktop or Laptop,Mac OS 10.15.6,Safari 15.3,820x1180,1180x713,Part 1 completed,Pics_Only_Dutch,5,,Part 1 completed,Accuracy_level_0.55,529.0000000000073,/task/320041/5/asset/comb.jpg,,,j,image-keyboard-response,10,62605,0.0-1.2-1.4,,,test,,0.7,,0.13465
12,1647100906249,12/03/2022 16:01:46,1647100906143,1,12/03/2022 17:01:46,73265,15,task-snpf,,20323902,BLIND,6028207,Intro Experiment: General explanations,complete,,,computer,Desktop or Laptop,Mac OS 10.15.6,Safari 15.3,820x1180,1180x713,Part 1 completed,Pics_Only_Dutch,5,,Part 1 completed,Accuracy_level_0.55,,"<div style=""font-size:60px;"">  </div>",,,,html-keyboard-response,11,62714,0.0-1.2-0.5,,,,,,,
13,1647100907731,12/03/2022 16:01:47,1647100907649,1,12/03/2022 17:01:47,73265,15,task-snpf,,20323902,BLIND,6028207,Intro Experiment: General explanations,complete,,,computer,Desktop or Laptop,Mac OS 10.15.6,Safari 15.3,820x1180,1180x713,Part 1 completed,Pics_Only_Dutch,5,,Part 1 completed,Accuracy_level_0.55,784.0000000000073,/task/320041/5/asset/truck.jpg,,,f,image-keyboard-response,12,64220,0.0-1.2-1.5,,,test,,0.5833333333333334,,0.16156666666666666
14,1647100907835,12/03/2022 16:01:47,1647100907756,1,12/03/2022 17:01:47,73265,15,task-snpf,,20323902,BLIND,6028207,Intro Experiment: General explanations,complete,,,computer,Desktop or Laptop,Mac OS 10.15.6,Safari 15.3,820x1180,1180x713,Part 1 completed,Pics_Only_Dutch,5,,Part 1 completed,Accuracy_level_0.55,,"<div style=""font-size:60px;"">  </div>",,,,html-keyboard-response,13,64328,0.0-1.3-0.6,,,,,,,
15,1647100909350,12/03/2022 16:01:49,1647100909265,1,12/03/2022 17:01:49,73265,15,task-snpf,,20323902,BLIND,6028207,Intro Experiment: General explanations,complete,,,computer,Desktop or Laptop,Mac OS 10.15.6,Safari 15.3,820x1180,1180x713,Part 1 completed,Pics_Only_Dutch,5,,Part 1 completed,Accuracy_level_0.55,756,/task/320041/5/asset/elephant.jpg,,,f,image-keyboard-response,14,65837,0.0-1.3-1.6,,,test,,0.525,,0.1885
16,1647100909444,12/03/2022 16:01:49,1647100909373,1,12/03/2022 17:01:49,73265,15,task-snpf,,20323902,BLIND,6028207,Intro Experiment: General explanations,complete,,,computer,Desktop or Laptop,Mac OS 10.15.6,Safari 15.3,820x1180,1180x713,Part 1 completed,Pics_Only_Dutch,5,,Part 1 completed,Accuracy_level_0.55,,"<div style=""font-size:60px;"">  </div>",,,,html-keyboard-response,15,65945,0.0-1.3-0.7,,,,,,,
17,1647100910965,12/03/2022 16:01:50,1647100910882,1,12/03/2022 17:01:50,73265,15,task-snpf,,20323902,BLIND,6028207,Intro Experiment: General explanations,complete,,,computer,Desktop or Laptop,Mac OS 10.15.6,Safari 15.3,820x1180,1180x713,Part 1 completed,Pics_Only_Dutch,5,,Part 1 completed,Accuracy_level_0.55,825,/task/320041/5/asset/house.jpg,,,f,image-keyboard-response,16,67453,0.0-1.3-1.7,,,test,,0.49000000000000005,,0.21545
1,1647029592994,11/03/2022 20:13:12,1647029592620,1,11/03/2022 21:13:12,73265,15,task-snpf,,20312488,BLIND,6025452,Intro Experiment: General explanations,complete,,,computer,Desktop or Laptop,Chromium OS 14388.61.0,Chrome 98.0.4758.107,1536x864,1536x746,Part 1 completed,Pics_Only_Dutch,5,,Part 1 completed,Accuracy_level_0.55,44379.60000000149,,,,,instructions,0,44391,0.0-0.0,,,,,,,
2,1647029593167,11/03/2022 20:13:13,1647029592740,1,11/03/2022 21:13:12,73265,15,task-snpf,,20312488,BLIND,6025452,Intro Experiment: General explanations,complete,,,computer,Desktop or Laptop,Chromium OS 14388.61.0,Chrome 98.0.4758.107,1536x864,1536x746,Part 1 completed,Pics_Only_Dutch,5,,Part 1 completed,Accuracy_level_0.55,,"<div style=""font-size:60px;"">  </div>",,,,html-keyboard-response,1,44512,0.0-1.0-0.0,,,,,,,
3,1647029594557,11/03/2022 20:13:14,1647029594244,1,11/03/2022 21:13:14,73265,15,task-snpf,,20312488,BLIND,6025452,Intro Experiment: General explanations,complete,,,computer,Desktop or Laptop,Chromium OS 14388.61.0,Chrome 98.0.4758.107,1536x864,1536x746,Part 1 completed,Pics_Only_Dutch,5,,Part 1 completed,Accuracy_level_0.55,,/task/320041/5/asset/plane.jpg,,,f,image-keyboard-response,2,46015,0.0-1.0-1.0,,,test,,0,,0.027066666666666666
4,1647029594674,11/03/2022 20:13:14,1647029594348,1,11/03/2022 21:13:14,73265,15,task-snpf,,20312488,BLIND,6025452,Intro Experiment: General explanations,complete,,,computer,Desktop or Laptop,Chromium OS 14388.61.0,Chrome 98.0.4758.107,1536x864,1536x746,Part 1 completed,Pics_Only_Dutch,5,,Part 1 completed,Accuracy_level_0.55,,"<div style=""font-size:60px;"">  </div>",,,,html-keyboard-response,3,46119,0.0-1.0-0.1,,,,,,,
5,1647029596151,11/03/2022 20:13:16,1647029595850,1,11/03/2022 21:13:15,73265,15,task-snpf,,20312488,BLIND,6025452,Intro Experiment: General explanations,complete,,,computer,Desktop or Laptop,Chromium OS 14388.61.0,Chrome 98.0.4758.107,1536x864,1536x746,Part 1 completed,Pics_Only_Dutch,5,,Part 1 completed,Accuracy_level_0.55,374.20000000298023,/task/320041/5/asset/house.jpg,,,f,image-keyboard-response,4,47622,0.0-1.0-1.1,,,test,,-0.35,,0.05383333333333333
6,1647029596301,11/03/2022 20:13:16,1647029595959,1,11/03/2022 21:13:15,73265,15,task-snpf,,20312488,BLIND,6025452,Intro Experiment: General explanations,complete,,,computer,Desktop or Laptop,Chromium OS 14388.61.0,Chrome 98.0.4758.107,1536x864,1536x746,Part 1 completed,Pics_Only_Dutch,5,,Part 1 completed,Accuracy_level_0.55,,"<div style=""font-size:60px;"">  </div>",,,,html-keyboard-response,5,47730,0.0-1.1-0.2,,,,,,,
7,1647029597751,11/03/2022 20:13:17,1647029597461,1,11/03/2022 21:13:17,73265,15,task-snpf,,20312488,BLIND,6025452,Intro Experiment: General explanations,complete,,,computer,Desktop or Laptop,Chromium OS 14388.61.0,Chrome 98.0.4758.107,1536x864,1536x746,Part 1 completed,Pics_Only_Dutch,5,,Part 1 completed,Accuracy_level_0.55,1169,/task/320041/5/asset/glass.jpg,,,j,image-keyboard-response,6,49232,0.0-1.1-1.2,,,test,,,,0.08068333333333333
8,1647029597854,11/03/2022 20:13:17,1647029597564,1,11/03/2022 21:13:17,73265,15,task-snpf,,20312488,BLIND,6025452,Intro Experiment: General explanations,complete,,,computer,Desktop or Laptop,Chromium OS 14388.61.0,Chrome 98.0.4758.107,1536x864,1536x746,Part 1 completed,Pics_Only_Dutch,5,,Part 1 completed,Accuracy_level_0.55,,"<div style=""font-size:60px;"">  </div>",,,,html-keyboard-response,7,49336,0.0-1.1-0.3,,,,,,,
9,1647029599361,11/03/2022 20:13:19,1647029599069,1,11/03/2022 21:13:19,73265,15,task-snpf,,20312488,BLIND,6025452,Intro Experiment: General explanations,complete,,,computer,Desktop or Laptop,Chromium OS 14388.61.0,Chrome 98.0.4758.107,1536x864,1536x746,Part 1 completed,Pics_Only_Dutch,5,,Part 1 completed,Accuracy_level_0.55,1193.199999999255,/task/320041/5/asset/pear.jpg,,,j,image-keyboard-response,8,50840,0.0-1.1-1.3,,,test,,1.05,,0.10748333333333333
10,1647029599463,11/03/2022 20:13:19,1647029599172,1,11/03/2022 21:13:19,73265,15,task-snpf,,20312488,BLIND,6025452,Intro Experiment: General explanations,complete,,,computer,Desktop or Laptop,Chromium OS 14388.61.0,Chrome 98.0.4758.107,1536x864,1536x746,Part 1 completed,Pics_Only_Dutch,5,,Part 1 completed,Accuracy_level_0.55,,"<div style=""font-size:60px;"">  </div>",,,,html-keyboard-response,9,50943,0.0-1.2-0.4,,,,,,,
11,1647029600979,11/03/2022 20:13:20,1647029600675,1,11/03/2022 21:13:20,73265,15,task-snpf,,20312488,BLIND,6025452,Intro Experiment: General explanations,complete,,,computer,Desktop or Laptop,Chromium OS 14388.61.0,Chrome 98.0.4758.107,1536x864,1536x746,Part 1 completed,Pics_Only_Dutch,5,,Part 1 completed,Accuracy_level_0.55,,/task/320041/5/asset/key.png,,,j,image-keyboard-response,10,52447,0.0-1.2-1.4,,,test,,0.525,,0.13425
12,1647029601163,11/03/2022 20:13:21,1647029600879,1,11/03/2022 21:13:20,73265,15,task-snpf,,20312488,BLIND,6025452,Intro Experiment: General explanations,complete,,,computer,Desktop or Laptop,Chromium OS 14388.61.0,Chrome 98.0.4758.107,1536x864,1536x746,Part 1 completed,Pics_Only_Dutch,5,,Part 1 completed,Accuracy_level_0.55,,"<span style=""color:red;font-size:50px;font-weight: bold;"">FOUT!</span>",,,,html-keyboard-response,11,52651,0.0-1.2-2.4-0.4,,,,,,,
13,1647029601324,11/03/2022 20:13:21,1647029600982,1,11/03/2022 21:13:20,73265,15,task-snpf,,20312488,BLIND,6025452,Intro Experiment: General explanations,complete,,,computer,Desktop or Laptop,Chromium OS 14388.61.0,Chrome 98.0.4758.107,1536x864,1536x746,Part 1 completed,Pics_Only_Dutch,5,,Part 1 completed,Accuracy_level_0.55,,"<div style=""font-size:60px;"">  </div>",,,,html-keyboard-response,12,52754,0.0-1.2-0.5,,,,,,,
14,1647029602793,11/03/2022 20:13:22,1647029602485,1,11/03/2022 21:13:22,73265,15,task-snpf,,20312488,BLIND,6025452,Intro Experiment: General explanations,complete,,,computer,Desktop or Laptop,Chromium OS 14388.61.0,Chrome 98.0.4758.107,1536x864,1536x746,Part 1 completed,Pics_Only_Dutch,5,,Part 1 completed,Accuracy_level_0.55,998.0999999977648,/task/320041/5/asset/house.jpg,,,f,image-keyboard-response,13,54257,0.0-1.2-1.5,,,test,,0.39999999999999997,,0.16441666666666666
15,1647029602909,11/03/2022 20:13:22,1647029602589,1,11/03/2022 21:13:22,73265,15,task-snpf,,20312488,BLIND,6025452,Intro Experiment: General explanations,complete,,,computer,Desktop or Laptop,Chromium OS 14388.61.0,Chrome 98.0.4758.107,1536x864,1536x746,Part 1 completed,Pics_Only_Dutch,5,,Part 1 completed,Accuracy_level_0.55,,"<div style=""font-size:60px;"">  </div>",,,,html-keyboard-response,14,54361,0.0-1.3-0.6,,,,,,,
16,1647029604391,11/03/2022 20:13:24,1647029604091,1,11/03/2022 21:13:24,73265,15,task-snpf,,20312488,BLIND,6025452,Intro Experiment: General explanations,complete,,,computer,Desktop or Laptop,Chromium OS 14388.61.0,Chrome 98.0.4758.107,1536x864,1536x746,Part 1 completed,Pics_Only_Dutch,5,,Part 1 completed,Accuracy_level_0.55,,/task/320041/5/asset/truck.jpg,,,f,image-keyboard-response,15,55863,0.0-1.3-1.6,,,test,,0.3111111111111111,,0.19118333333333334
17,1647029604676,11/03/2022 20:13:24,1647029604294,1,11/03/2022 21:13:24,73265,15,task-snpf,,20312488,BLIND,6025452,Intro Experiment: General explanations,complete,,,computer,Desktop or Laptop,Chromium OS 14388.61.0,Chrome 98.0.4758.107,1536x864,1536x746,Part 1 completed,Pics_Only_Dutch,5,,Part 1 completed,Accuracy_level_0.55,,"<span style=""color:red;font-size:50px;font-weight: bold;"">FOUT!</span>",,,,html-keyboard-response,16,56066,0.0-1.3-2.6-0.6,,,,,,,
18,1647029604813,11/03/2022 20:13:24,1647029604396,1,11/03/2022 21:13:24,73265,15,task-snpf,,20312488,BLIND,6025452,Intro Experiment: General explanations,complete,,,computer,Desktop or Laptop,Chromium OS 14388.61.0,Chrome 98.0.4758.107,1536x864,1536x746,Part 1 completed,Pics_Only_Dutch,5,,Part 1 completed,Accuracy_level_0.55,,"<div style=""font-size:60px;"">  </div>",,,,html-keyboard-response,17,56168,0.0-1.3-0.7,,,,,,,
19,1647029606205,11/03/2022 20:13:26,1647029605898,1,11/03/2022 21:13:25,73265,15,task-snpf,,20312488,BLIND,6025452,Intro Experiment: General explanations,complete,,,computer,Desktop or Laptop,Chromium OS 14388.61.0,Chrome 98.0.4758.107,1536x864,1536x746,Part 1 completed,Pics_Only_Dutch,5,,Part 1 completed,Accuracy_level_0.55,682,/task/320041/5/asset/plane.jpg,,,f,image-keyboard-response,18,57670,0.0-1.3-1.7,,,test,,0.2916666666666667,,0.2213
1,1647003698890,11/03/2022 13:01:38,1647003696706,1,11/03/2022 14:01:36,73265,15,task-snpf,,20299209,BLIND,6021035,Intro Experiment: General explanations,complete,,,computer,Desktop or Laptop,Windows 10,Chrome 99.0.4844.51,1536x864,1536x722,Part 1 completed,Pics_Only_Dutch,5,,Part 1 completed,Accuracy_level_0.55,59314.10000000009,,,,,instructions,0,59320,0.0-0.0,,,,,,,
2,1647003699343,11/03/2022 13:01:39,1647003696856,1,11/03/2022 14:01:36,73265,15,task-snpf,,20299209,BLIND,6021035,Intro Experiment: General explanations,complete,,,computer,Desktop or Laptop,Windows 10,Chrome 99.0.4844.51,1536x864,1536x722,Part 1 completed,Pics_Only_Dutch,5,,Part 1 completed,Accuracy_level_0.55,,"<div style=""font-size:60px;"">  </div>",,,,html-keyboard-response,1,59470,0.0-1.0-0.0,,,,,,,
3,1647003700452,11/03/2022 13:01:40,1647003698364,1,11/03/2022 14:01:38,73265,15,task-snpf,,20299209,BLIND,6021035,Intro Experiment: General explanations,complete,,,computer,Desktop or Laptop,Windows 10,Chrome 99.0.4844.51,1536x864,1536x722,Part 1 completed,Pics_Only_Dutch,5,,Part 1 completed,Accuracy_level_0.55,1291.5,/task/320041/5/asset/elephant.jpg,,,f,image-keyboard-response,2,60978,0.0-1.0-1.0,,,test,,-0.175,,0.02765
4,1647003700562,11/03/2022 13:01:40,1647003698468,1,11/03/2022 14:01:38,73265,15,task-snpf,,20299209,BLIND,6021035,Intro Experiment: General explanations,complete,,,computer,Desktop or Laptop,Windows 10,Chrome 99.0.4844.51,1536x864,1536x722,Part 1 completed,Pics_Only_Dutch,5,,Part 1 completed,Accuracy_level_0.55,,"<div style=""font-size:60px;"">  </div>",,,,html-keyboard-response,3,61083,0.0-1.0-0.1,,,,,,,
5,1647003702066,11/03/2022 13:01:42,1647003699975,1,11/03/2022 14:01:39,73265,15,task-snpf,,20299209,BLIND,6021035,Intro Experiment: General explanations,complete,,,computer,Desktop or Laptop,Windows 10,Chrome 99.0.4844.51,1536x864,1536x722,Part 1 completed,Pics_Only_Dutch,5,,Part 1 completed,Accuracy_level_0.55,970.4000000000233,/task/320041/5/asset/house.jpg,,,f,image-keyboard-response,4,62589,0.0-1.0-1.1,,,test,,-0.7,,0.0545
6,1647003702428,11/03/2022 13:01:42,1647003700101,1,11/03/2022 14:01:40,73265,15,task-snpf,,20299209,BLIND,6021035,Intro Experiment: General explanations,complete,,,computer,Desktop or Laptop,Windows 10,Chrome 99.0.4844.51,1536x864,1536x722,Part 1 completed,Pics_Only_Dutch,5,,Part 1 completed,Accuracy_level_0.55,,"<div style=""font-size:60px;"">  </div>",,,,html-keyboard-response,5,62716,0.0-1.1-0.2,,,,,,,
7,1647003703680,11/03/2022 13:01:43,1647003701607,1,11/03/2022 14:01:41,73265,15,task-snpf,,20299209,BLIND,6021035,Intro Experiment: General explanations,complete,,,computer,Desktop or Laptop,Windows 10,Chrome 99.0.4844.51,1536x864,1536x722,Part 1 completed,Pics_Only_Dutch,5,,Part 1 completed,Accuracy_level_0.55,484.29999999993015,/task/320041/5/asset/elephant.jpg,,,f,image-keyboard-response,6,64222,0.0-1.1-1.2,,,test,,,,0.0817
8,1647003703800,11/03/2022 13:01:43,1647003701711,1,11/03/2022 14:01:41,73265,15,task-snpf,,20299209,BLIND,6021035,Intro Experiment: General explanations,complete,,,computer,Desktop or Laptop,Windows 10,Chrome 99.0.4844.51,1536x864,1536x722,Part 1 completed,Pics_Only_Dutch,5,,Part 1 completed,Accuracy_level_0.55,,"<div style=""font-size:60px;"">  </div>",,,,html-keyboard-response,7,64326,0.0-1.1-0.3,,,,,,,
9,1647003705295,11/03/2022 13:01:45,1647003703216,1,11/03/2022 14:01:43,73265,15,task-snpf,,20299209,BLIND,6021035,Intro Experiment: General explanations,complete,,,computer,Desktop or Laptop,Windows 10,Chrome 99.0.4844.51,1536x864,1536x722,Part 1 completed,Pics_Only_Dutch,5,,Part 1 completed,Accuracy_level_0.55,,/task/320041/5/asset/key.png,,,j,image-keyboard-response,8,65831,0.0-1.1-1.3,,,test,,1.05,,0.10851666666666666
10,1647003705582,11/03/2022 13:01:45,1647003703441,1,11/03/2022 14:01:43,73265,15,task-snpf,,20299209,BLIND,6021035,Intro Experiment: General explanations,complete,,,computer,Desktop or Laptop,Windows 10,Chrome 99.0.4844.51,1536x864,1536x722,Part 1 completed,Pics_Only_Dutch,5,,Part 1 completed,Accuracy_level_0.55,,"<span style=""color:red;font-size:50px;font-weight: bold;"">FOUT!</span>",,,,html-keyboard-response,9,66056,0.0-1.1-2.3-0.3,,,,,,,
11,1647003706125,11/03/2022 13:01:46,1647003703544,1,11/03/2022 14:01:43,73265,15,task-snpf,,20299209,BLIND,6021035,Intro Experiment: General explanations,complete,,,computer,Desktop or Laptop,Windows 10,Chrome 99.0.4844.51,1536x864,1536x722,Part 1 completed,Pics_Only_Dutch,5,,Part 1 completed,Accuracy_level_0.55,,"<div style=""font-size:60px;"">  </div>",,,,html-keyboard-response,10,66159,0.0-1.2-0.4,,,,,,,
12,1647003707128,11/03/2022 13:01:47,1647003705048,1,11/03/2022 14:01:45,73265,15,task-snpf,,20299209,BLIND,6021035,Intro Experiment: General explanations,complete,,,computer,Desktop or Laptop,Windows 10,Chrome 99.0.4844.51,1536x864,1536x722,Part 1 completed,Pics_Only_Dutch,5,,Part 1 completed,Accuracy_level_0.55,,/task/320041/5/asset/truck.jpg,,,f,image-keyboard-response,11,67663,0.0-1.2-1.4,,,test,,0.42000000000000004,,0.13905
13,1647003707453,11/03/2022 13:01:47,1647003705260,1,11/03/2022 14:01:45,73265,15,task-snpf,,20299209,BLIND,6021035,Intro Experiment: General explanations,complete,,,computer,Desktop or Laptop,Windows 10,Chrome 99.0.4844.51,1536x864,1536x722,Part 1 completed,Pics_Only_Dutch,5,,Part 1 completed,Accuracy_level_0.55,,"<span style=""color:red;font-size:50px;font-weight: bold;"">FOUT!</span>",,,,html-keyboard-response,12,67875,0.0-1.2-2.4-0.4,,,,,,,
14,1647003707453,11/03/2022 13:01:47,1647003705363,1,11/03/2022 14:01:45,73265,15,task-snpf,,20299209,BLIND,6021035,Intro Experiment: General explanations,complete,,,computer,Desktop or Laptop,Windows 10,Chrome 99.0.4844.51,1536x864,1536x722,Part 1 completed,Pics_Only_Dutch,5,,Part 1 completed,Accuracy_level_0.55,,"<div style=""font-size:60px;"">  </div>",,,,html-keyboard-response,13,67978,0.0-1.2-0.5,,,,,,,
15,1647003708941,11/03/2022 13:01:48,1647003706865,1,11/03/2022 14:01:46,73265,15,task-snpf,,20299209,BLIND,6021035,Intro Experiment: General explanations,complete,,,computer,Desktop or Laptop,Windows 10,Chrome 99.0.4844.51,1536x864,1536x722,Part 1 completed,Pics_Only_Dutch,5,,Part 1 completed,Accuracy_level_0.55,1353.8999999999069,/task/320041/5/asset/pear.jpg,,,j,image-keyboard-response,14,69479,0.0-1.2-1.5,,,test,,0.35,,0.16933333333333334
16,1647003709050,11/03/2022 13:01:49,1647003706970,1,11/03/2022 14:01:46,73265,15,task-snpf,,20299209,BLIND,6021035,Intro Experiment: General explanations,complete,,,computer,Desktop or Laptop,Windows 10,Chrome 99.0.4844.51,1536x864,1536x722,Part 1 completed,Pics_Only_Dutch,5,,Part 1 completed,Accuracy_level_0.55,,"<div style=""font-size:60px;"">  </div>",,,,html-keyboard-response,15,69585,0.0-1.3-0.6,,,,,,,
17,1647003710568,11/03/2022 13:01:50,1647003708482,1,11/03/2022 14:01:48,73265,15,task-snpf,,20299209,BLIND,6021035,Intro Experiment: General explanations,complete,,,computer,Desktop or Laptop,Windows 10,Chrome 99.0.4844.51,1536x864,1536x722,Part 1 completed,Pics_Only_Dutch,5,,Part 1 completed,Accuracy_level_0.55,,/task/320041/5/asset/key.png,,,j,image-keyboard-response,16,71096,0.0-1.3-1.6,,,test,,0.27999999999999997,,0.19628333333333334
18,1647003710776,11/03/2022 13:01:50,1647003708705,1,11/03/2022 14:01:48,73265,15,task-snpf,,20299209,BLIND,6021035,Intro Experiment: General explanations,complete,,,computer,Desktop or Laptop,Windows 10,Chrome 99.0.4844.51,1536x864,1536x722,Part 1 completed,Pics_Only_Dutch,5,,Part 1 completed,Accuracy_level_0.55,,"<span style=""color:red;font-size:50px;font-weight: bold;"">FOUT!</span>",,,,html-keyboard-response,17,71320,0.0-1.3-2.6-0.6,,,,,,,
19,1647003710896,11/03/2022 13:01:50,1647003708821,1,11/03/2022 14:01:48,73265,15,task-snpf,,20299209,BLIND,6021035,Intro Experiment: General explanations,complete,,,computer,Desktop or Laptop,Windows 10,Chrome 99.0.4844.51,1536x864,1536x722,Part 1 completed,Pics_Only_Dutch,5,,Part 1 completed,Accuracy_level_0.55,,"<div style=""font-size:60px;"">  </div>",,,,html-keyboard-response,18,71436,0.0-1.3-0.7,,,,,,,
20,1647003712497,11/03/2022 13:01:52,1647003710329,1,11/03/2022 14:01:50,73265,15,task-snpf,,20299209,BLIND,6021035,Intro Experiment: General explanations,complete,,,computer,Desktop or Laptop,Windows 10,Chrome 99.0.4844.51,1536x864,1536x722,Part 1 completed,Pics_Only_Dutch,5,,Part 1 completed,Accuracy_level_0.55,511.39999999990687,/task/320041/5/asset/house.jpg,,,f,image-keyboard-response,19,72944,0.0-1.3-1.7,,,test,,0.2692307692307692,,0.22706666666666667
1,1646840343667,09/03/2022 15:39:03,1646840344512,1,09/03/2022 16:39:04,73265,15,task-snpf,,20237335,BLIND,6003084,Intro Experiment: General explanations,complete,,,computer,Desktop or Laptop,Mac OS 10.14.6,Chrome 98.0.4758.102,1280x800,1244x555,Part 1 completed,Pics_Only_Dutch,5,,Part 1 completed,Accuracy_level_0.55,45330.30000001192,,,,,instructions,0,45341,0.0-0.0,,,,,,,
2,1646840343730,09/03/2022 15:39:03,1646840344629,1,09/03/2022 16:39:04,73265,15,task-snpf,,20237335,BLIND,6003084,Intro Experiment: General explanations,complete,,,computer,Desktop or Laptop,Mac OS 10.14.6,Chrome 98.0.4758.102,1280x800,1244x555,Part 1 completed,Pics_Only_Dutch,5,,Part 1 completed,Accuracy_level_0.55,,"<div style=""font-size:60px;"">  </div>",,,,html-keyboard-response,1,45461,0.0-1.0-0.0,,,,,,,
3,1646840345230,09/03/2022 15:39:05,1646840346133,1,09/03/2022 16:39:06,73265,15,task-snpf,,20237335,BLIND,6003084,Intro Experiment: General explanations,complete,,,computer,Desktop or Laptop,Mac OS 10.14.6,Chrome 98.0.4758.102,1280x800,1244x555,Part 1 completed,Pics_Only_Dutch,5,,Part 1 completed,Accuracy_level_0.55,,/task/320041/5/asset/plane.jpg,,,f,image-keyboard-response,2,46965,0.0-1.0-1.0,,,test,,0,,0.02705
4,1646840345374,09/03/2022 15:39:05,1646840346237,1,09/03/2022 16:39:06,73265,15,task-snpf,,20237335,BLIND,6003084,Intro Experiment: General explanations,complete,,,computer,Desktop or Laptop,Mac OS 10.14.6,Chrome 98.0.4758.102,1280x800,1244x555,Part 1 completed,Pics_Only_Dutch,5,,Part 1 completed,Accuracy_level_0.55,,"<div style=""font-size:60px;"">  </div>",,,,html-keyboard-response,3,47069,0.0-1.0-0.1,,,,,,,
5,1646840346839,09/03/2022 15:39:06,1646840347741,1,09/03/2022 16:39:07,73265,15,task-snpf,,20237335,BLIND,6003084,Intro Experiment: General explanations,complete,,,computer,Desktop or Laptop,Mac OS 10.14.6,Chrome 98.0.4758.102,1280x800,1244x555,Part 1 completed,Pics_Only_Dutch,5,,Part 1 completed,Accuracy_level_0.55,865.1999999880791,/task/320041/5/asset/comb.jpg,,,j,image-keyboard-response,4,48573,0.0-1.0-1.1,,,test,,-0.35,,0.05385
6,1646840346958,09/03/2022 15:39:06,1646840347845,1,09/03/2022 16:39:07,73265,15,task-snpf,,20237335,BLIND,6003084,Intro Experiment: General explanations,complete,,,computer,Desktop or Laptop,Mac OS 10.14.6,Chrome 98.0.4758.102,1280x800,1244x555,Part 1 completed,Pics_Only_Dutch,5,,Part 1 completed,Accuracy_level_0.55,,"<div style=""font-size:60px;"">  </div>",,,,html-keyboard-response,5,48677,0.0-1.1-0.2,,,,,,,
7,1646840348449,09/03/2022 15:39:08,1646840349349,1,09/03/2022 16:39:09,73265,15,task-snpf,,20237335,BLIND,6003084,Intro Experiment: General explanations,complete,,,computer,Desktop or Laptop,Mac OS 10.14.6,Chrome 98.0.4758.102,1280x800,1244x555,Part 1 completed,Pics_Only_Dutch,5,,Part 1 completed,Accuracy_level_0.55,668.6000000238419,/task/320041/5/asset/truck.jpg,,,f,image-keyboard-response,6,50181,0.0-1.1-1.2,,,test,,,,0.08065
8,1646840348595,09/03/2022 15:39:08,1646840349453,1,09/03/2022 16:39:09,73265,15,task-snpf,,20237335,BLIND,6003084,Intro Experiment: General explanations,complete,,,computer,Desktop or Laptop,Mac OS 10.14.6,Chrome 98.0.4758.102,1280x800,1244x555,Part 1 completed,Pics_Only_Dutch,5,,Part 1 completed,Accuracy_level_0.55,,"<div style=""font-size:60px;"">  </div>",,,,html-keyboard-response,7,50285,0.0-1.1-0.3,,,,,,,
9,1646840350097,09/03/2022 15:39:10,1646840350957,1,09/03/2022 16:39:10,73265,15,task-snpf,,20237335,BLIND,6003084,Intro Experiment: General explanations,complete,,,computer,Desktop or Laptop,Mac OS 10.14.6,Chrome 98.0.4758.102,1280x800,1244x555,Part 1 completed,Pics_Only_Dutch,5,,Part 1 completed,Accuracy_level_0.55,663.3000000119209,/task/320041/5/asset/house.jpg,,,f,image-keyboard-response,8,51789,0.0-1.1-1.3,,,test,,1.05,,0.10745
10,1646840350168,09/03/2022 15:39:10,1646840351060,1,09/03/2022 16:39:11,73265,15,task-snpf,,20237335,BLIND,6003084,Intro Experiment: General explanations,complete,,,computer,Desktop or Laptop,Mac OS 10.14.6,Chrome 98.0.4758.102,1280x800,1244x555,Part 1 completed,Pics_Only_Dutch,5,,Part 1 completed,Accuracy_level_0.55,,"<div style=""font-size:60px;"">  </div>",,,,html-keyboard-response,9,51892,0.0-1.2-0.4,,,,,,,
11,1646840351673,09/03/2022 15:39:11,1646840352565,1,09/03/2022 16:39:12,73265,15,task-snpf,,20237335,BLIND,6003084,Intro Experiment: General explanations,complete,,,computer,Desktop or Laptop,Mac OS 10.14.6,Chrome 98.0.4758.102,1280x800,1244x555,Part 1 completed,Pics_Only_Dutch,5,,Part 1 completed,Accuracy_level_0.55,1003.8999999761581,/task/320041/5/asset/comb.jpg,,,j,image-keyboard-response,10,53397,0.0-1.2-1.4,,,test,,0.7,,0.13425
12,1646840351770,09/03/2022 15:39:11,1646840352669,1,09/03/2022 16:39:12,73265,15,task-snpf,,20237335,BLIND,6003084,Intro Experiment: General explanations,complete,,,computer,Desktop or Laptop,Mac OS 10.14.6,Chrome 98.0.4758.102,1280x800,1244x555,Part 1 completed,Pics_Only_Dutch,5,,Part 1 completed,Accuracy_level_0.55,,"<div style=""font-size:60px;"">  </div>",,,,html-keyboard-response,11,53501,0.0-1.2-0.5,,,,,,,
13,1646840353301,09/03/2022 15:39:13,1646840354173,1,09/03/2022 16:39:14,73265,15,task-snpf,,20237335,BLIND,6003084,Intro Experiment: General explanations,complete,,,computer,Desktop or Laptop,Mac OS 10.14.6,Chrome 98.0.4758.102,1280x800,1244x555,Part 1 completed,Pics_Only_Dutch,5,,Part 1 completed,Accuracy_level_0.55,452.69999998807907,/task/320041/5/asset/comb.jpg,,,j,image-keyboard-response,12,55005,0.0-1.2-1.5,,,test,,0.5833333333333334,,0.16105
14,1646840353379,09/03/2022 15:39:13,1646840354275,1,09/03/2022 16:39:14,73265,15,task-snpf,,20237335,BLIND,6003084,Intro Experiment: General explanations,complete,,,computer,Desktop or Laptop,Mac OS 10.14.6,Chrome 98.0.4758.102,1280x800,1244x555,Part 1 completed,Pics_Only_Dutch,5,,Part 1 completed,Accuracy_level_0.55,,"<div style=""font-size:60px;"">  </div>",,,,html-keyboard-response,13,55106,0.0-1.3-0.6,,,,,,,
15,1646840354880,09/03/2022 15:39:14,1646840355781,1,09/03/2022 16:39:15,73265,15,task-snpf,,20237335,BLIND,6003084,Intro Experiment: General explanations,complete,,,computer,Desktop or Laptop,Mac OS 10.14.6,Chrome 98.0.4758.102,1280x800,1244x555,Part 1 completed,Pics_Only_Dutch,5,,Part 1 completed,Accuracy_level_0.55,546.4000000357628,/task/320041/5/asset/elephant.jpg,,,f,image-keyboard-response,14,56613,0.0-1.3-1.6,,,test,,0.525,,0.18785
16,1646840355004,09/03/2022 15:39:15,1646840355885,1,09/03/2022 16:39:15,73265,15,task-snpf,,20237335,BLIND,6003084,Intro Experiment: General explanations,complete,,,computer,Desktop or Laptop,Mac OS 10.14.6,Chrome 98.0.4758.102,1280x800,1244x555,Part 1 completed,Pics_Only_Dutch,5,,Part 1 completed,Accuracy_level_0.55,,"<div style=""font-size:60px;"">  </div>",,,,html-keyboard-response,15,56717,0.0-1.3-0.7,,,,,,,
17,1646840356498,09/03/2022 15:39:16,1646840357391,1,09/03/2022 16:39:17,73265,15,task-snpf,,20237335,BLIND,6003084,Intro Experiment: General explanations,complete,,,computer,Desktop or Laptop,Mac OS 10.14.6,Chrome 98.0.4758.102,1280x800,1244x555,Part 1 completed,Pics_Only_Dutch,5,,Part 1 completed,Accuracy_level_0.55,,/task/320041/5/asset/key.png,,,j,image-keyboard-response,16,58223,0.0-1.3-1.7,,,test,,0.42000000000000004,,0.21468333333333334
18,1646840356705,09/03/2022 15:39:16,1646840357598,1,09/03/2022 16:39:17,73265,15,task-snpf,,20237335,BLIND,6003084,Intro Experiment: General explanations,complete,,,computer,Desktop or Laptop,Mac OS 10.14.6,Chrome 98.0.4758.102,1280x800,1244x555,Part 1 completed,Pics_Only_Dutch,5,,Part 1 completed,Accuracy_level_0.55,,"<span style=""color:red;font-size:50px;font-weight: bold;"">FOUT!</span>",,,,html-keyboard-response,17,58430,0.0-1.3-2.7-0.7,,,,,,,
1,1646834080807,09/03/2022 13:54:40,1646834081107,1,09/03/2022 14:54:41,73265,15,task-snpf,,20233234,BLIND,6001857,Intro Experiment: General explanations,complete,,,computer,Desktop or Laptop,Mac OS 10.15.7,Chrome 98.0.4758.109,1440x900,1440x789,Part 1 completed,Pics_Only_Dutch,5,,Part 1 completed,Accuracy_level_0.55,35355.60000000894,,,,,instructions,0,35361,0.0-0.0,,,,,,,
2,1646834080919,09/03/2022 13:54:40,1646834081220,1,09/03/2022 14:54:41,73265,15,task-snpf,,20233234,BLIND,6001857,Intro Experiment: General explanations,complete,,,computer,Desktop or Laptop,Mac OS 10.15.7,Chrome 98.0.4758.109,1440x900,1440x789,Part 1 completed,Pics_Only_Dutch,5,,Part 1 completed,Accuracy_level_0.55,,"<div style=""font-size:60px;"">  </div>",,,,html-keyboard-response,1,35475,0.0-1.0-0.0,,,,,,,
3,1646834082374,09/03/2022 13:54:42,1646834082725,1,09/03/2022 14:54:42,73265,15,task-snpf,,20233234,BLIND,6001857,Intro Experiment: General explanations,complete,,,computer,Desktop or Laptop,Mac OS 10.15.7,Chrome 98.0.4758.109,1440x900,1440x789,Part 1 completed,Pics_Only_Dutch,5,,Part 1 completed,Accuracy_level_0.55,1264.6000000089407,/task/320041/5/asset/truck.jpg,,,f,image-keyboard-response,2,36979,0.0-1.0-1.0,,,test,,-0.175,,0.026966666666666667
4,1646834082825,09/03/2022 13:54:42,1646834082828,1,09/03/2022 14:54:42,73265,15,task-snpf,,20233234,BLIND,6001857,Intro Experiment: General explanations,complete,,,computer,Desktop or Laptop,Mac OS 10.15.7,Chrome 98.0.4758.109,1440x900,1440x789,Part 1 completed,Pics_Only_Dutch,5,,Part 1 completed,Accuracy_level_0.55,,"<div style=""font-size:60px;"">  </div>",,,,html-keyboard-response,3,37083,0.0-1.0-0.1,,,,,,,
5,1646834083951,09/03/2022 13:54:43,1646834084334,1,09/03/2022 14:54:44,73265,15,task-snpf,,20233234,BLIND,6001857,Intro Experiment: General explanations,complete,,,computer,Desktop or Laptop,Mac OS 10.15.7,Chrome 98.0.4758.109,1440x900,1440x789,Part 1 completed,Pics_Only_Dutch,5,,Part 1 completed,Accuracy_level_0.55,1066.2000000029802,/task/320041/5/asset/pear.jpg,,,j,image-keyboard-response,4,38589,0.0-1.0-1.1,,,test,,-0.7,,0.053783333333333336
6,1646834084061,09/03/2022 13:54:44,1646834084437,1,09/03/2022 14:54:44,73265,15,task-snpf,,20233234,BLIND,6001857,Intro Experiment: General explanations,complete,,,computer,Desktop or Laptop,Mac OS 10.15.7,Chrome 98.0.4758.109,1440x900,1440x789,Part 1 completed,Pics_Only_Dutch,5,,Part 1 completed,Accuracy_level_0.55,,"<div style=""font-size:60px;"">  </div>",,,,html-keyboard-response,5,38692,0.0-1.1-0.2,,,,,,,
7,1646834085588,09/03/2022 13:54:45,1646834085942,1,09/03/2022 14:54:45,73265,15,task-snpf,,20233234,BLIND,6001857,Intro Experiment: General explanations,complete,,,computer,Desktop or Laptop,Mac OS 10.15.7,Chrome 98.0.4758.109,1440x900,1440x789,Part 1 completed,Pics_Only_Dutch,5,,Part 1 completed,Accuracy_level_0.55,1053.5999999940395,/task/320041/5/asset/plane.jpg,,,f,image-keyboard-response,6,40196,0.0-1.1-1.2,,,test,,,,0.08058333333333334
8,1646834085675,09/03/2022 13:54:45,1646834086044,1,09/03/2022 14:54:46,73265,15,task-snpf,,20233234,BLIND,6001857,Intro Experiment: General explanations,complete,,,computer,Desktop or Laptop,Mac OS 10.15.7,Chrome 98.0.4758.109,1440x900,1440x789,Part 1 completed,Pics_Only_Dutch,5,,Part 1 completed,Accuracy_level_0.55,,"<div style=""font-size:60px;"">  </div>",,,,html-keyboard-response,7,40299,0.0-1.1-0.3,,,,,,,
9,1646834087166,09/03/2022 13:54:47,1646834087548,1,09/03/2022 14:54:47,73265,15,task-snpf,,20233234,BLIND,6001857,Intro Experiment: General explanations,complete,,,computer,Desktop or Laptop,Mac OS 10.15.7,Chrome 98.0.4758.109,1440x900,1440x789,Part 1 completed,Pics_Only_Dutch,5,,Part 1 completed,Accuracy_level_0.55,985.5999999940395,/task/320041/5/asset/comb.jpg,,,j,image-keyboard-response,8,41803,0.0-1.1-1.3,,,test,,1.05,,0.10735
10,1646834087373,09/03/2022 13:54:47,1646834087752,1,09/03/2022 14:54:47,73265,15,task-snpf,,20233234,BLIND,6001857,Intro Experiment: General explanations,complete,,,computer,Desktop or Laptop,Mac OS 10.15.7,Chrome 98.0.4758.109,1440x900,1440x789,Part 1 completed,Pics_Only_Dutch,5,,Part 1 completed,Accuracy_level_0.55,,"<span style=""color:red;font-size:50px;font-weight: bold;"">FOUT!</span>",,,,html-keyboard-response,9,42007,0.0-1.1-2.3-0.3,,,,,,,
11,1646834087575,09/03/2022 13:54:47,1646834087856,1,09/03/2022 14:54:47,73265,15,task-snpf,,20233234,BLIND,6001857,Intro Experiment: General explanations,complete,,,computer,Desktop or Laptop,Mac OS 10.15.7,Chrome 98.0.4758.109,1440x900,1440x789,Part 1 completed,Pics_Only_Dutch,5,,Part 1 completed,Accuracy_level_0.55,,"<div style=""font-size:60px;"">  </div>",,,,html-keyboard-response,10,42110,0.0-1.2-0.4,,,,,,,
12,1646834089076,09/03/2022 13:54:49,1646834089358,1,09/03/2022 14:54:49,73265,15,task-snpf,,20233234,BLIND,6001857,Intro Experiment: General explanations,complete,,,computer,Desktop or Laptop,Mac OS 10.15.7,Chrome 98.0.4758.109,1440x900,1440x789,Part 1 completed,Pics_Only_Dutch,5,,Part 1 completed,Accuracy_level_0.55,684,/task/320041/5/asset/pear.jpg,,,j,image-keyboard-response,11,43613,0.0-1.2-1.4,,,test,,0.5599999999999999,,0.13751666666666668
13,1646834089201,09/03/2022 13:54:49,1646834089464,1,09/03/2022 14:54:49,73265,15,task-snpf,,20233234,BLIND,6001857,Intro Experiment: General explanations,complete,,,computer,Desktop or Laptop,Mac OS 10.15.7,Chrome 98.0.4758.109,1440x900,1440x789,Part 1 completed,Pics_Only_Dutch,5,,Part 1 completed,Accuracy_level_0.55,,"<div style=""font-size:60px;"">  </div>",,,,html-keyboard-response,12,43719,0.0-1.2-0.5,,,,,,,
14,1646834090632,09/03/2022 13:54:50,1646834090967,1,09/03/2022 14:54:50,73265,15,task-snpf,,20233234,BLIND,6001857,Intro Experiment: General explanations,complete,,,computer,Desktop or Laptop,Mac OS 10.15.7,Chrome 98.0.4758.109,1440x900,1440x789,Part 1 completed,Pics_Only_Dutch,5,,Part 1 completed,Accuracy_level_0.55,660.8999999910593,/task/320041/5/asset/comb.jpg,,,j,image-keyboard-response,13,45222,0.0-1.2-1.5,,,test,,0.5,,0.16433333333333333
15,1646834090795,09/03/2022 13:54:50,1646834091072,1,09/03/2022 14:54:51,73265,15,task-snpf,,20233234,BLIND,6001857,Intro Experiment: General explanations,complete,,,computer,Desktop or Laptop,Mac OS 10.15.7,Chrome 98.0.4758.109,1440x900,1440x789,Part 1 completed,Pics_Only_Dutch,5,,Part 1 completed,Accuracy_level_0.55,,"<div style=""font-size:60px;"">  </div>",,,,html-keyboard-response,14,45327,0.0-1.3-0.6,,,,,,,
16,1646834092226,09/03/2022 13:54:52,1646834092575,1,09/03/2022 14:54:52,73265,15,task-snpf,,20233234,BLIND,6001857,Intro Experiment: General explanations,complete,,,computer,Desktop or Laptop,Mac OS 10.15.7,Chrome 98.0.4758.109,1440x900,1440x789,Part 1 completed,Pics_Only_Dutch,5,,Part 1 completed,Accuracy_level_0.55,618.2999999970198,/task/320041/5/asset/pear.jpg,,,j,image-keyboard-response,15,46830,0.0-1.3-1.6,,,test,,0.4666666666666667,,0.19113333333333332
17,1646834092312,09/03/2022 13:54:52,1646834092680,1,09/03/2022 14:54:52,73265,15,task-snpf,,20233234,BLIND,6001857,Intro Experiment: General explanations,complete,,,computer,Desktop or Laptop,Mac OS 10.15.7,Chrome 98.0.4758.109,1440x900,1440x789,Part 1 completed,Pics_Only_Dutch,5,,Part 1 completed,Accuracy_level_0.55,,"<div style=""font-size:60px;"">  </div>",,,,html-keyboard-response,16,46934,0.0-1.3-0.7,,,,,,,
18,1646834093804,09/03/2022 13:54:53,1646834094183,1,09/03/2022 14:54:54,73265,15,task-snpf,,20233234,BLIND,6001857,Intro Experiment: General explanations,complete,,,computer,Desktop or Laptop,Mac OS 10.15.7,Chrome 98.0.4758.109,1440x900,1440x789,Part 1 completed,Pics_Only_Dutch,5,,Part 1 completed,Accuracy_level_0.55,536.1999999880791,/task/320041/5/asset/comb.jpg,,,j,image-keyboard-response,17,48438,0.0-1.3-1.7,,,test,,0.4454545454545455,,0.21793333333333334
1,1646727492131,08/03/2022 08:18:12,1646727491995,1,08/03/2022 09:18:11,73265,15,task-snpf,,20177290,BLIND,5984986,Intro Experiment: General explanations,complete,,,computer,Desktop or Laptop,Mac OS 10.15.7,Safari 14.1,1440x900,1440x820,Part 1 completed,Pics_Only_Dutch,5,,Part 1 completed,Accuracy_level_0.55,40800,,,,,instructions,0,40801,0.0-0.0,,,,,,,
2,1646727492229,08/03/2022 08:18:12,1646727492102,1,08/03/2022 09:18:12,73265,15,task-snpf,,20177290,BLIND,5984986,Intro Experiment: General explanations,complete,,,computer,Desktop or Laptop,Mac OS 10.15.7,Safari 14.1,1440x900,1440x820,Part 1 completed,Pics_Only_Dutch,5,,Part 1 completed,Accuracy_level_0.55,,"<div style=""font-size:60px;"">  </div>",,,,html-keyboard-response,1,40908,0.0-1.0-0.0,,,,,,,
3,1646727493672,08/03/2022 08:18:13,1646727493609,1,08/03/2022 09:18:13,73265,15,task-snpf,,20177290,BLIND,5984986,Intro Experiment: General explanations,complete,,,computer,Desktop or Laptop,Mac OS 10.15.7,Safari 14.1,1440x900,1440x820,Part 1 completed,Pics_Only_Dutch,5,,Part 1 completed,Accuracy_level_0.55,948,/task/320041/5/asset/house.jpg,,,f,image-keyboard-response,2,42415,0.0-1.0-1.0,,,test,,-0.175,,0.0269
4,1646727493791,08/03/2022 08:18:13,1646727493715,1,08/03/2022 09:18:13,73265,15,task-snpf,,20177290,BLIND,5984986,Intro Experiment: General explanations,complete,,,computer,Desktop or Laptop,Mac OS 10.15.7,Safari 14.1,1440x900,1440x820,Part 1 completed,Pics_Only_Dutch,5,,Part 1 completed,Accuracy_level_0.55,,"<div style=""font-size:60px;"">  </div>",,,,html-keyboard-response,3,42521,0.0-1.0-0.1,,,,,,,
5,1646727495297,08/03/2022 08:18:15,1646727495220,1,08/03/2022 09:18:15,73265,15,task-snpf,,20177290,BLIND,5984986,Intro Experiment: General explanations,complete,,,computer,Desktop or Laptop,Mac OS 10.15.7,Safari 14.1,1440x900,1440x820,Part 1 completed,Pics_Only_Dutch,5,,Part 1 completed,Accuracy_level_0.55,765,/task/320041/5/asset/comb.jpg,,,j,image-keyboard-response,4,44027,0.0-1.0-1.1,,,test,,-0.7,,0.05375
6,1646727495394,08/03/2022 08:18:15,1646727495327,1,08/03/2022 09:18:15,73265,15,task-snpf,,20177290,BLIND,5984986,Intro Experiment: General explanations,complete,,,computer,Desktop or Laptop,Mac OS 10.15.7,Safari 14.1,1440x900,1440x820,Part 1 completed,Pics_Only_Dutch,5,,Part 1 completed,Accuracy_level_0.55,,"<div style=""font-size:60px;"">  </div>",,,,html-keyboard-response,5,44134,0.0-1.1-0.2,,,,,,,
7,1646727496902,08/03/2022 08:18:16,1646727496833,1,08/03/2022 09:18:16,73265,15,task-snpf,,20177290,BLIND,5984986,Intro Experiment: General explanations,complete,,,computer,Desktop or Laptop,Mac OS 10.15.7,Safari 14.1,1440x900,1440x820,Part 1 completed,Pics_Only_Dutch,5,,Part 1 completed,Accuracy_level_0.55,703.0000000000073,/task/320041/5/asset/pear.jpg,,,j,image-keyboard-response,6,45639,0.0-1.1-1.2,,,test,,,,0.08063333333333333
8,1646727497012,08/03/2022 08:18:17,1646727496938,1,08/03/2022 09:18:16,73265,15,task-snpf,,20177290,BLIND,5984986,Intro Experiment: General explanations,complete,,,computer,Desktop or Laptop,Mac OS 10.15.7,Safari 14.1,1440x900,1440x820,Part 1 completed,Pics_Only_Dutch,5,,Part 1 completed,Accuracy_level_0.55,,"<div style=""font-size:60px;"">  </div>",,,,html-keyboard-response,7,45745,0.0-1.1-0.3,,,,,,,
9,1646727498516,08/03/2022 08:18:18,1646727498444,1,08/03/2022 09:18:18,73265,15,task-snpf,,20177290,BLIND,5984986,Intro Experiment: General explanations,complete,,,computer,Desktop or Laptop,Mac OS 10.15.7,Safari 14.1,1440x900,1440x820,Part 1 completed,Pics_Only_Dutch,5,,Part 1 completed,Accuracy_level_0.55,576.0000000000073,/task/320041/5/asset/plane.jpg,,,f,image-keyboard-response,8,47250,0.0-1.1-1.3,,,test,,1.4,,0.10748333333333333
10,1646727498617,08/03/2022 08:18:18,1646727498550,1,08/03/2022 09:18:18,73265,15,task-snpf,,20177290,BLIND,5984986,Intro Experiment: General explanations,complete,,,computer,Desktop or Laptop,Mac OS 10.15.7,Safari 14.1,1440x900,1440x820,Part 1 completed,Pics_Only_Dutch,5,,Part 1 completed,Accuracy_level_0.55,,"<div style=""font-size:60px;"">  </div>",,,,html-keyboard-response,9,47357,0.0-1.2-0.4,,,,,,,
11,1646727500127,08/03/2022 08:18:20,1646727500059,1,08/03/2022 09:18:20,73265,15,task-snpf,,20177290,BLIND,5984986,Intro Experiment: General explanations,complete,,,computer,Desktop or Laptop,Mac OS 10.15.7,Safari 14.1,1440x900,1440x820,Part 1 completed,Pics_Only_Dutch,5,,Part 1 completed,Accuracy_level_0.55,508,/task/320041/5/asset/house.jpg,,,f,image-keyboard-response,10,48866,0.0-1.2-1.4,,,test,,0.875,,0.1344
12,1646727500225,08/03/2022 08:18:20,1646727500165,1,08/03/2022 09:18:20,73265,15,task-snpf,,20177290,BLIND,5984986,Intro Experiment: General explanations,complete,,,computer,Desktop or Laptop,Mac OS 10.15.7,Safari 14.1,1440x900,1440x820,Part 1 completed,Pics_Only_Dutch,5,,Part 1 completed,Accuracy_level_0.55,,"<div style=""font-size:60px;"">  </div>",,,,html-keyboard-response,11,48972,0.0-1.2-0.5,,,,,,,
13,1646727501736,08/03/2022 08:18:21,1646727501671,1,08/03/2022 09:18:21,73265,15,task-snpf,,20177290,BLIND,5984986,Intro Experiment: General explanations,complete,,,computer,Desktop or Laptop,Mac OS 10.15.7,Safari 14.1,1440x900,1440x820,Part 1 completed,Pics_Only_Dutch,5,,Part 1 completed,Accuracy_level_0.55,710,/task/320041/5/asset/truck.jpg,,,f,image-keyboard-response,12,50477,0.0-1.2-1.5,,,test,,0.7000000000000001,,0.16126666666666667
14,1646727501883,08/03/2022 08:18:21,1646727501777,1,08/03/2022 09:18:21,73265,15,task-snpf,,20177290,BLIND,5984986,Intro Experiment: General explanations,complete,,,computer,Desktop or Laptop,Mac OS 10.15.7,Safari 14.1,1440x900,1440x820,Part 1 completed,Pics_Only_Dutch,5,,Part 1 completed,Accuracy_level_0.55,,"<div style=""font-size:60px;"">  </div>",,,,html-keyboard-response,13,50583,0.0-1.3-0.6,,,,,,,
15,1646727503356,08/03/2022 08:18:23,1646727503283,1,08/03/2022 09:18:23,73265,15,task-snpf,,20177290,BLIND,5984986,Intro Experiment: General explanations,complete,,,computer,Desktop or Laptop,Mac OS 10.15.7,Safari 14.1,1440x900,1440x820,Part 1 completed,Pics_Only_Dutch,5,,Part 1 completed,Accuracy_level_0.55,,/task/320041/5/asset/key.png,,,j,image-keyboard-response,14,52089,0.0-1.3-1.6,,,test,,0.525,,0.18813333333333335
16,1646727503545,08/03/2022 08:18:23,1646727503488,1,08/03/2022 09:18:23,73265,15,task-snpf,,20177290,BLIND,5984986,Intro Experiment: General explanations,complete,,,computer,Desktop or Laptop,Mac OS 10.15.7,Safari 14.1,1440x900,1440x820,Part 1 completed,Pics_Only_Dutch,5,,Part 1 completed,Accuracy_level_0.55,,"<span style=""color:red;font-size:50px;font-weight: bold;"">FOUT!</span>",,,,html-keyboard-response,15,52295,0.0-1.3-2.6-0.6,,,,,,,
