Event Index,UTC Timestamp,UTC Date,Local Timestamp,Local Timezone,Local Date,Experiment ID,Experiment Version,Tree Node Key,Repeat Key,Schedule ID,Participant Public ID,Participant Private ID,Participant Starting Group,Participant Status,Participant Completion Code,Participant External Session ID,Participant Device Type,Participant Device,Participant OS,Participant Browser,Participant Monitor Size,Participant Viewport Size,Checkpoint,Task Name,Task Version,checkpoint-yiku,checkpoint-gn26,randomiser-2vg5,Reaction Time,Stimulus,Key Press,Test Part,Correct Response,Trial Type,Trial Index,Time Elapsed,Internal Node ID,Correct,match,phase,correct_resp,prop_correct,accuracy_color_trial,minutes
1,1645127471204,17/02/2022 19:51:11,1645127471079,1,17/02/2022 20:51:11,73265,15,task-mxe3,,19549994,BLIND,5789048,Intro Experiment: General explanations,complete,,,computer,Desktop or Laptop,Mac OS 10.15.7,Safari 15.0,1440x900,1440x862,Part 1 completed,Pics_Only_Dutch,5,,Part 1 completed,Accuracy_level_0.55,19568,,,,,instructions,0,19573,0.0-0.0,,,,,,,
2,1645127471298,17/02/2022 19:51:11,1645127471186,1,17/02/2022 20:51:11,73265,15,task-mxe3,,19549994,BLIND,5789048,Intro Experiment: General explanations,complete,,,computer,Desktop or Laptop,Mac OS 10.15.7,Safari 15.0,1440x900,1440x862,Part 1 completed,Pics_Only_Dutch,5,,Part 1 completed,Accuracy_level_0.55,,"<div style=""font-size:60px;"">  </div>",,,,html-keyboard-response,1,19681,0.0-1.0-0.0,,,,,,,
3,1645127472726,17/02/2022 19:51:12,1645127472691,1,17/02/2022 20:51:12,73265,15,task-mxe3,,19549994,BLIND,5789048,Intro Experiment: General explanations,complete,,,computer,Desktop or Laptop,Mac OS 10.15.7,Safari 15.0,1440x900,1440x862,Part 1 completed,Pics_Only_Dutch,5,,Part 1 completed,Accuracy_level_0.55,1062,/task/320041/5/asset/elephant.jpg,,,f,image-keyboard-response,2,21185,0.0-1.0-1.0,,,test,,-0.175,,0.026866666666666667
4,1645127472836,17/02/2022 19:51:12,1645127472796,1,17/02/2022 20:51:12,73265,15,task-mxe3,,19549994,BLIND,5789048,Intro Experiment: General explanations,complete,,,computer,Desktop or Laptop,Mac OS 10.15.7,Safari 15.0,1440x900,1440x862,Part 1 completed,Pics_Only_Dutch,5,,Part 1 completed,Accuracy_level_0.55,,"<div style=""font-size:60px;"">  </div>",,,,html-keyboard-response,3,21291,0.0-1.0-0.1,,,,,,,
5,1645127474345,17/02/2022 19:51:14,1645127474302,1,17/02/2022 20:51:14,73265,15,task-mxe3,,19549994,BLIND,5789048,Intro Experiment: General explanations,complete,,,computer,Desktop or Laptop,Mac OS 10.15.7,Safari 15.0,1440x900,1440x862,Part 1 completed,Pics_Only_Dutch,5,,Part 1 completed,Accuracy_level_0.55,800,/task/320041/5/asset/house.jpg,,,f,image-keyboard-response,4,22796,0.0-1.0-1.1,,,test,,-0.7,,0.05371666666666667
6,1645127474454,17/02/2022 19:51:14,1645127474407,1,17/02/2022 20:51:14,73265,15,task-mxe3,,19549994,BLIND,5789048,Intro Experiment: General explanations,complete,,,computer,Desktop or Laptop,Mac OS 10.15.7,Safari 15.0,1440x900,1440x862,Part 1 completed,Pics_Only_Dutch,5,,Part 1 completed,Accuracy_level_0.55,,"<div style=""font-size:60px;"">  </div>",,,,html-keyboard-response,5,22901,0.0-1.1-0.2,,,,,,,
7,1645127475955,17/02/2022 19:51:15,1645127475912,1,17/02/2022 20:51:15,73265,15,task-mxe3,,19549994,BLIND,5789048,Intro Experiment: General explanations,complete,,,computer,Desktop or Laptop,Mac OS 10.15.7,Safari 15.0,1440x900,1440x862,Part 1 completed,Pics_Only_Dutch,5,,Part 1 completed,Accuracy_level_0.55,774,/task/320041/5/asset/comb.jpg,,,j,image-keyboard-response,6,24406,0.0-1.1-1.2,,,test,,,,0.08055
8,1645127476042,17/02/2022 19:51:16,1645127476016,1,17/02/2022 20:51:16,73265,15,task-mxe3,,19549994,BLIND,5789048,Intro Experiment: General explanations,complete,,,computer,Desktop or Laptop,Mac OS 10.15.7,Safari 15.0,1440x900,1440x862,Part 1 completed,Pics_Only_Dutch,5,,Part 1 completed,Accuracy_level_0.55,,"<div style=""font-size:60px;"">  </div>",,,,html-keyboard-response,7,24511,0.0-1.1-0.3,,,,,,,
9,1645127477574,17/02/2022 19:51:17,1645127477521,1,17/02/2022 20:51:17,73265,15,task-mxe3,,19549994,BLIND,5789048,Intro Experiment: General explanations,complete,,,computer,Desktop or Laptop,Mac OS 10.15.7,Safari 15.0,1440x900,1440x862,Part 1 completed,Pics_Only_Dutch,5,,Part 1 completed,Accuracy_level_0.55,,/task/320041/5/asset/key.png,,,j,image-keyboard-response,8,26016,0.0-1.1-1.3,,,test,,1.05,,0.10736666666666667
10,1645127477761,17/02/2022 19:51:17,1645127477726,1,17/02/2022 20:51:17,73265,15,task-mxe3,,19549994,BLIND,5789048,Intro Experiment: General explanations,complete,,,computer,Desktop or Laptop,Mac OS 10.15.7,Safari 15.0,1440x900,1440x862,Part 1 completed,Pics_Only_Dutch,5,,Part 1 completed,Accuracy_level_0.55,,"<span style=""color:red;font-size:50px;font-weight: bold;"">FOUT!</span>",,,,html-keyboard-response,9,26221,0.0-1.1-2.3-0.3,,,,,,,
11,1645127477870,17/02/2022 19:51:17,1645127477831,1,17/02/2022 20:51:17,73265,15,task-mxe3,,19549994,BLIND,5789048,Intro Experiment: General explanations,complete,,,computer,Desktop or Laptop,Mac OS 10.15.7,Safari 15.0,1440x900,1440x862,Part 1 completed,Pics_Only_Dutch,5,,Part 1 completed,Accuracy_level_0.55,,"<div style=""font-size:60px;"">  </div>",,,,html-keyboard-response,10,26326,0.0-1.2-0.4,,,,,,,
12,1645127479389,17/02/2022 19:51:19,1645127479348,1,17/02/2022 20:51:19,73265,15,task-mxe3,,19549994,BLIND,5789048,Intro Experiment: General explanations,complete,,,computer,Desktop or Laptop,Mac OS 10.15.7,Safari 15.0,1440x900,1440x862,Part 1 completed,Pics_Only_Dutch,5,,Part 1 completed,Accuracy_level_0.55,1225,/task/320041/5/asset/house.jpg,,,f,image-keyboard-response,11,27843,0.0-1.2-1.4,,,test,,0.5599999999999999,,0.13781666666666667
13,1645127479499,17/02/2022 19:51:19,1645127479452,1,17/02/2022 20:51:19,73265,15,task-mxe3,,19549994,BLIND,5789048,Intro Experiment: General explanations,complete,,,computer,Desktop or Laptop,Mac OS 10.15.7,Safari 15.0,1440x900,1440x862,Part 1 completed,Pics_Only_Dutch,5,,Part 1 completed,Accuracy_level_0.55,,"<div style=""font-size:60px;"">  </div>",,,,html-keyboard-response,12,27947,0.0-1.2-0.5,,,,,,,
14,1645127480992,17/02/2022 19:51:20,1645127480957,1,17/02/2022 20:51:20,73265,15,task-mxe3,,19549994,BLIND,5789048,Intro Experiment: General explanations,complete,,,computer,Desktop or Laptop,Mac OS 10.15.7,Safari 15.0,1440x900,1440x862,Part 1 completed,Pics_Only_Dutch,5,,Part 1 completed,Accuracy_level_0.55,930,/task/320041/5/asset/house.jpg,,,f,image-keyboard-response,13,29451,0.0-1.2-1.5,,,test,,0.5,,0.16463333333333333
15,1645127481107,17/02/2022 19:51:21,1645127481061,1,17/02/2022 20:51:21,73265,15,task-mxe3,,19549994,BLIND,5789048,Intro Experiment: General explanations,complete,,,computer,Desktop or Laptop,Mac OS 10.15.7,Safari 15.0,1440x900,1440x862,Part 1 completed,Pics_Only_Dutch,5,,Part 1 completed,Accuracy_level_0.55,,"<div style=""font-size:60px;"">  </div>",,,,html-keyboard-response,14,29556,0.0-1.3-0.6,,,,,,,
16,1645127482609,17/02/2022 19:51:22,1645127482567,1,17/02/2022 20:51:22,73265,15,task-mxe3,,19549994,BLIND,5789048,Intro Experiment: General explanations,complete,,,computer,Desktop or Laptop,Mac OS 10.15.7,Safari 15.0,1440x900,1440x862,Part 1 completed,Pics_Only_Dutch,5,,Part 1 completed,Accuracy_level_0.55,634,/task/320041/5/asset/plane.jpg,,,f,image-keyboard-response,15,31061,0.0-1.3-1.6,,,test,,0.4666666666666667,,0.19145
17,1645127482704,17/02/2022 19:51:22,1645127482671,1,17/02/2022 20:51:22,73265,15,task-mxe3,,19549994,BLIND,5789048,Intro Experiment: General explanations,complete,,,computer,Desktop or Laptop,Mac OS 10.15.7,Safari 15.0,1440x900,1440x862,Part 1 completed,Pics_Only_Dutch,5,,Part 1 completed,Accuracy_level_0.55,,"<div style=""font-size:60px;"">  </div>",,,,html-keyboard-response,16,31166,0.0-1.3-0.7,,,,,,,
18,1645127484219,17/02/2022 19:51:24,1645127484176,1,17/02/2022 20:51:24,73265,15,task-mxe3,,19549994,BLIND,5789048,Intro Experiment: General explanations,complete,,,computer,Desktop or Laptop,Mac OS 10.15.7,Safari 15.0,1440x900,1440x862,Part 1 completed,Pics_Only_Dutch,5,,Part 1 completed,Accuracy_level_0.55,676.9999999999964,/task/320041/5/asset/truck.jpg,,,f,image-keyboard-response,17,32671,0.0-1.3-1.7,,,test,,0.4454545454545455,,0.21828333333333333
1,1647900570625,21/03/2022 22:09:30,1647900567889,1,21/03/2022 23:09:27,73265,15,task-mxe3,,20636036,BLIND,6099386,Intro Experiment: General explanations,complete,,,computer,Desktop or Laptop,Windows 10,Chrome 99.0.4844.51,1536x864,1536x722,Part 1 completed,Pics_Only_Dutch,5,,Part 1 completed,Accuracy_level_0.55,26518.800000071526,,,,,instructions,0,26526,0.0-0.0,,,,,,,
2,1647900570874,21/03/2022 22:09:30,1647900568012,1,21/03/2022 23:09:28,73265,15,task-mxe3,,20636036,BLIND,6099386,Intro Experiment: General explanations,complete,,,computer,Desktop or Laptop,Windows 10,Chrome 99.0.4844.51,1536x864,1536x722,Part 1 completed,Pics_Only_Dutch,5,,Part 1 completed,Accuracy_level_0.55,,"<div style=""font-size:60px;"">  </div>",,,,html-keyboard-response,1,26650,0.0-1.0-0.0,,,,,,,
3,1647900572198,21/03/2022 22:09:32,1647900569516,1,21/03/2022 23:09:29,73265,15,task-mxe3,,20636036,BLIND,6099386,Intro Experiment: General explanations,complete,,,computer,Desktop or Laptop,Windows 10,Chrome 99.0.4844.51,1536x864,1536x722,Part 1 completed,Pics_Only_Dutch,5,,Part 1 completed,Accuracy_level_0.55,1238.1999999284744,/task/320041/5/asset/plane.jpg,,,f,image-keyboard-response,2,28153,0.0-1.0-1.0,,,test,,-0.175,,0.027116666666666667
4,1647900572300,21/03/2022 22:09:32,1647900569620,1,21/03/2022 23:09:29,73265,15,task-mxe3,,20636036,BLIND,6099386,Intro Experiment: General explanations,complete,,,computer,Desktop or Laptop,Windows 10,Chrome 99.0.4844.51,1536x864,1536x722,Part 1 completed,Pics_Only_Dutch,5,,Part 1 completed,Accuracy_level_0.55,,"<div style=""font-size:60px;"">  </div>",,,,html-keyboard-response,3,28258,0.0-1.0-0.1,,,,,,,
5,1647900573776,21/03/2022 22:09:33,1647900571125,1,21/03/2022 23:09:31,73265,15,task-mxe3,,20636036,BLIND,6099386,Intro Experiment: General explanations,complete,,,computer,Desktop or Laptop,Windows 10,Chrome 99.0.4844.51,1536x864,1536x722,Part 1 completed,Pics_Only_Dutch,5,,Part 1 completed,Accuracy_level_0.55,508.1999999284744,/task/320041/5/asset/plane.jpg,,,f,image-keyboard-response,4,29762,0.0-1.0-1.1,,,test,,-0.7,,0.05393333333333333
6,1647900573886,21/03/2022 22:09:33,1647900571229,1,21/03/2022 23:09:31,73265,15,task-mxe3,,20636036,BLIND,6099386,Intro Experiment: General explanations,complete,,,computer,Desktop or Laptop,Windows 10,Chrome 99.0.4844.51,1536x864,1536x722,Part 1 completed,Pics_Only_Dutch,5,,Part 1 completed,Accuracy_level_0.55,,"<div style=""font-size:60px;"">  </div>",,,,html-keyboard-response,5,29866,0.0-1.1-0.2,,,,,,,
7,1647900575384,21/03/2022 22:09:35,1647900572732,1,21/03/2022 23:09:32,73265,15,task-mxe3,,20636036,BLIND,6099386,Intro Experiment: General explanations,complete,,,computer,Desktop or Laptop,Windows 10,Chrome 99.0.4844.51,1536x864,1536x722,Part 1 completed,Pics_Only_Dutch,5,,Part 1 completed,Accuracy_level_0.55,,/task/320041/5/asset/key.png,,,j,image-keyboard-response,6,31369,0.0-1.1-1.2,,,test,,,,0.08071666666666667
8,1647900575587,21/03/2022 22:09:35,1647900572935,1,21/03/2022 23:09:32,73265,15,task-mxe3,,20636036,BLIND,6099386,Intro Experiment: General explanations,complete,,,computer,Desktop or Laptop,Windows 10,Chrome 99.0.4844.51,1536x864,1536x722,Part 1 completed,Pics_Only_Dutch,5,,Part 1 completed,Accuracy_level_0.55,,"<span style=""color:red;font-size:50px;font-weight: bold;"">FOUT!</span>",,,,html-keyboard-response,7,31573,0.0-1.1-2.2-0.2,,,,,,,
9,1647900575694,21/03/2022 22:09:35,1647900573038,1,21/03/2022 23:09:33,73265,15,task-mxe3,,20636036,BLIND,6099386,Intro Experiment: General explanations,complete,,,computer,Desktop or Laptop,Windows 10,Chrome 99.0.4844.51,1536x864,1536x722,Part 1 completed,Pics_Only_Dutch,5,,Part 1 completed,Accuracy_level_0.55,,"<div style=""font-size:60px;"">  </div>",,,,html-keyboard-response,8,31676,0.0-1.1-0.3,,,,,,,
10,1647900577195,21/03/2022 22:09:37,1647900574543,1,21/03/2022 23:09:34,73265,15,task-mxe3,,20636036,BLIND,6099386,Intro Experiment: General explanations,complete,,,computer,Desktop or Laptop,Windows 10,Chrome 99.0.4844.51,1536x864,1536x722,Part 1 completed,Pics_Only_Dutch,5,,Part 1 completed,Accuracy_level_0.55,,/task/320041/5/asset/truck.jpg,,,f,image-keyboard-response,9,33180,0.0-1.1-1.3,,,test,,0.4666666666666666,,0.1109
11,1647900577398,21/03/2022 22:09:37,1647900574746,1,21/03/2022 23:09:34,73265,15,task-mxe3,,20636036,BLIND,6099386,Intro Experiment: General explanations,complete,,,computer,Desktop or Laptop,Windows 10,Chrome 99.0.4844.51,1536x864,1536x722,Part 1 completed,Pics_Only_Dutch,5,,Part 1 completed,Accuracy_level_0.55,,"<span style=""color:red;font-size:50px;font-weight: bold;"">FOUT!</span>",,,,html-keyboard-response,10,33384,0.0-1.1-2.3-0.3,,,,,,,
12,1647900577507,21/03/2022 22:09:37,1647900574849,1,21/03/2022 23:09:34,73265,15,task-mxe3,,20636036,BLIND,6099386,Intro Experiment: General explanations,complete,,,computer,Desktop or Laptop,Windows 10,Chrome 99.0.4844.51,1536x864,1536x722,Part 1 completed,Pics_Only_Dutch,5,,Part 1 completed,Accuracy_level_0.55,,"<div style=""font-size:60px;"">  </div>",,,,html-keyboard-response,11,33487,0.0-1.2-0.4,,,,,,,
13,1647900579008,21/03/2022 22:09:39,1647900576352,1,21/03/2022 23:09:36,73265,15,task-mxe3,,20636036,BLIND,6099386,Intro Experiment: General explanations,complete,,,computer,Desktop or Laptop,Windows 10,Chrome 99.0.4844.51,1536x864,1536x722,Part 1 completed,Pics_Only_Dutch,5,,Part 1 completed,Accuracy_level_0.55,418.60000002384186,/task/320041/5/asset/key.png,,,j,image-keyboard-response,12,34990,0.0-1.2-1.4,,,test,,0.2333333333333333,,0.14105
14,1647900579211,21/03/2022 22:09:39,1647900576555,1,21/03/2022 23:09:36,73265,15,task-mxe3,,20636036,BLIND,6099386,Intro Experiment: General explanations,complete,,,computer,Desktop or Laptop,Windows 10,Chrome 99.0.4844.51,1536x864,1536x722,Part 1 completed,Pics_Only_Dutch,5,,Part 1 completed,Accuracy_level_0.55,,"<span style=""color:red;font-size:50px;font-weight: bold;"">FOUT!</span>",,,,html-keyboard-response,13,35193,0.0-1.2-2.4-0.4,,,,,,,
15,1647900579320,21/03/2022 22:09:39,1647900576657,1,21/03/2022 23:09:36,73265,15,task-mxe3,,20636036,BLIND,6099386,Intro Experiment: General explanations,complete,,,computer,Desktop or Laptop,Windows 10,Chrome 99.0.4844.51,1536x864,1536x722,Part 1 completed,Pics_Only_Dutch,5,,Part 1 completed,Accuracy_level_0.55,,"<div style=""font-size:60px;"">  </div>",,,,html-keyboard-response,14,35295,0.0-1.2-0.5,,,,,,,
16,1647900580825,21/03/2022 22:09:40,1647900578159,1,21/03/2022 23:09:38,73265,15,task-mxe3,,20636036,BLIND,6099386,Intro Experiment: General explanations,complete,,,computer,Desktop or Laptop,Windows 10,Chrome 99.0.4844.51,1536x864,1536x722,Part 1 completed,Pics_Only_Dutch,5,,Part 1 completed,Accuracy_level_0.55,,/task/320041/5/asset/key.png,,,j,image-keyboard-response,15,36797,0.0-1.2-1.5,,,test,,0.15555555555555556,,0.17116666666666666
17,1647900581013,21/03/2022 22:09:41,1647900578362,1,21/03/2022 23:09:38,73265,15,task-mxe3,,20636036,BLIND,6099386,Intro Experiment: General explanations,complete,,,computer,Desktop or Laptop,Windows 10,Chrome 99.0.4844.51,1536x864,1536x722,Part 1 completed,Pics_Only_Dutch,5,,Part 1 completed,Accuracy_level_0.55,,"<span style=""color:red;font-size:50px;font-weight: bold;"">FOUT!</span>",,,,html-keyboard-response,16,37000,0.0-1.2-2.5-0.5,,,,,,,
18,1647900581123,21/03/2022 22:09:41,1647900578466,1,21/03/2022 23:09:38,73265,15,task-mxe3,,20636036,BLIND,6099386,Intro Experiment: General explanations,complete,,,computer,Desktop or Laptop,Windows 10,Chrome 99.0.4844.51,1536x864,1536x722,Part 1 completed,Pics_Only_Dutch,5,,Part 1 completed,Accuracy_level_0.55,,"<div style=""font-size:60px;"">  </div>",,,,html-keyboard-response,17,37104,0.0-1.3-0.6,,,,,,,
19,1647900582625,21/03/2022 22:09:42,1647900579969,1,21/03/2022 23:09:39,73265,15,task-mxe3,,20636036,BLIND,6099386,Intro Experiment: General explanations,complete,,,computer,Desktop or Laptop,Windows 10,Chrome 99.0.4844.51,1536x864,1536x722,Part 1 completed,Pics_Only_Dutch,5,,Part 1 completed,Accuracy_level_0.55,1255.6000000238419,/task/320041/5/asset/comb.jpg,,,j,image-keyboard-response,18,38606,0.0-1.3-1.6,,,test,,0.17500000000000002,,0.20133333333333334
20,1647900582818,21/03/2022 22:09:42,1647900580072,1,21/03/2022 23:09:40,73265,15,task-mxe3,,20636036,BLIND,6099386,Intro Experiment: General explanations,complete,,,computer,Desktop or Laptop,Windows 10,Chrome 99.0.4844.51,1536x864,1536x722,Part 1 completed,Pics_Only_Dutch,5,,Part 1 completed,Accuracy_level_0.55,,"<div style=""font-size:60px;"">  </div>",,,,html-keyboard-response,19,38710,0.0-1.3-0.7,,,,,,,
21,1647900584236,21/03/2022 22:09:44,1647900581574,1,21/03/2022 23:09:41,73265,15,task-mxe3,,20636036,BLIND,6099386,Intro Experiment: General explanations,complete,,,computer,Desktop or Laptop,Windows 10,Chrome 99.0.4844.51,1536x864,1536x722,Part 1 completed,Pics_Only_Dutch,5,,Part 1 completed,Accuracy_level_0.55,771.1000000238419,/task/320041/5/asset/comb.jpg,,,j,image-keyboard-response,20,40212,0.0-1.3-1.7,,,test,,0.19999999999999998,,0.22808333333333333
1,1647711219265,19/03/2022 17:33:39,1647711219093,1,19/03/2022 18:33:39,73265,15,task-mxe3,,20561664,BLIND,6052332,Intro Experiment: General explanations,complete,,,computer,Desktop or Laptop,Mac OS 10.15.7,Safari 15.1,1440x900,1440x820,Part 1 completed,Pics_Only_Dutch,5,,Part 1 completed,Accuracy_level_0.55,279172,,,,,instructions,0,279197,0.0-0.0,,,,,,,
2,1647711219349,19/03/2022 17:33:39,1647711219207,1,19/03/2022 18:33:39,73265,15,task-mxe3,,20561664,BLIND,6052332,Intro Experiment: General explanations,complete,,,computer,Desktop or Laptop,Mac OS 10.15.7,Safari 15.1,1440x900,1440x820,Part 1 completed,Pics_Only_Dutch,5,,Part 1 completed,Accuracy_level_0.55,,"<div style=""font-size:60px;"">  </div>",,,,html-keyboard-response,1,279315,0.0-1.0-0.0,,,,,,,
3,1647711220838,19/03/2022 17:33:40,1647711220713,1,19/03/2022 18:33:40,73265,15,task-mxe3,,20561664,BLIND,6052332,Intro Experiment: General explanations,complete,,,computer,Desktop or Laptop,Mac OS 10.15.7,Safari 15.1,1440x900,1440x820,Part 1 completed,Pics_Only_Dutch,5,,Part 1 completed,Accuracy_level_0.55,639,/task/320041/5/asset/house.jpg,,,f,image-keyboard-response,2,280819,0.0-1.0-1.0,,,test,,-0.175,,0.027
4,1647711220917,19/03/2022 17:33:40,1647711220821,1,19/03/2022 18:33:40,73265,15,task-mxe3,,20561664,BLIND,6052332,Intro Experiment: General explanations,complete,,,computer,Desktop or Laptop,Mac OS 10.15.7,Safari 15.1,1440x900,1440x820,Part 1 completed,Pics_Only_Dutch,5,,Part 1 completed,Accuracy_level_0.55,,"<div style=""font-size:60px;"">  </div>",,,,html-keyboard-response,3,280929,0.0-1.0-0.1,,,,,,,
5,1647711222453,19/03/2022 17:33:42,1647711222327,1,19/03/2022 18:33:42,73265,15,task-mxe3,,20561664,BLIND,6052332,Intro Experiment: General explanations,complete,,,computer,Desktop or Laptop,Mac OS 10.15.7,Safari 15.1,1440x900,1440x820,Part 1 completed,Pics_Only_Dutch,5,,Part 1 completed,Accuracy_level_0.55,,/task/320041/5/asset/key.png,,,j,image-keyboard-response,4,282435,0.0-1.0-1.1,,,test,,-0.35,,0.0539
6,1647711222579,19/03/2022 17:33:42,1647711222433,1,19/03/2022 18:33:42,73265,15,task-mxe3,,20561664,BLIND,6052332,Intro Experiment: General explanations,complete,,,computer,Desktop or Laptop,Mac OS 10.15.7,Safari 15.1,1440x900,1440x820,Part 1 completed,Pics_Only_Dutch,5,,Part 1 completed,Accuracy_level_0.55,,"<div style=""font-size:60px;"">  </div>",,,,html-keyboard-response,5,282541,0.0-1.1-0.2,,,,,,,
7,1647711224035,19/03/2022 17:33:44,1647711223938,1,19/03/2022 18:33:43,73265,15,task-mxe3,,20561664,BLIND,6052332,Intro Experiment: General explanations,complete,,,computer,Desktop or Laptop,Mac OS 10.15.7,Safari 15.1,1440x900,1440x820,Part 1 completed,Pics_Only_Dutch,5,,Part 1 completed,Accuracy_level_0.55,634,/task/320041/5/asset/plane.jpg,,,f,image-keyboard-response,6,284046,0.0-1.1-1.2,,,test,,,,0.08075
8,1647711224142,19/03/2022 17:33:44,1647711224043,1,19/03/2022 18:33:44,73265,15,task-mxe3,,20561664,BLIND,6052332,Intro Experiment: General explanations,complete,,,computer,Desktop or Laptop,Mac OS 10.15.7,Safari 15.1,1440x900,1440x820,Part 1 completed,Pics_Only_Dutch,5,,Part 1 completed,Accuracy_level_0.55,,"<div style=""font-size:60px;"">  </div>",,,,html-keyboard-response,7,284151,0.0-1.1-0.3,,,,,,,
9,1647711225660,19/03/2022 17:33:45,1647711225550,1,19/03/2022 18:33:45,73265,15,task-mxe3,,20561664,BLIND,6052332,Intro Experiment: General explanations,complete,,,computer,Desktop or Laptop,Mac OS 10.15.7,Safari 15.1,1440x900,1440x820,Part 1 completed,Pics_Only_Dutch,5,,Part 1 completed,Accuracy_level_0.55,914,/task/320041/5/asset/glass.jpg,,,j,image-keyboard-response,8,285657,0.0-1.1-1.3,,,test,,1.05,,0.1076
10,1647711225754,19/03/2022 17:33:45,1647711225656,1,19/03/2022 18:33:45,73265,15,task-mxe3,,20561664,BLIND,6052332,Intro Experiment: General explanations,complete,,,computer,Desktop or Laptop,Mac OS 10.15.7,Safari 15.1,1440x900,1440x820,Part 1 completed,Pics_Only_Dutch,5,,Part 1 completed,Accuracy_level_0.55,,"<div style=""font-size:60px;"">  </div>",,,,html-keyboard-response,9,285764,0.0-1.2-0.4,,,,,,,
11,1647711227271,19/03/2022 17:33:47,1647711227177,1,19/03/2022 18:33:47,73265,15,task-mxe3,,20561664,BLIND,6052332,Intro Experiment: General explanations,complete,,,computer,Desktop or Laptop,Mac OS 10.15.7,Safari 15.1,1440x900,1440x820,Part 1 completed,Pics_Only_Dutch,5,,Part 1 completed,Accuracy_level_0.55,428,/task/320041/5/asset/glass.jpg,,,j,image-keyboard-response,10,287284,0.0-1.2-1.4,,,test,,0.7,,0.13473333333333334
12,1647711227379,19/03/2022 17:33:47,1647711227283,1,19/03/2022 18:33:47,73265,15,task-mxe3,,20561664,BLIND,6052332,Intro Experiment: General explanations,complete,,,computer,Desktop or Laptop,Mac OS 10.15.7,Safari 15.1,1440x900,1440x820,Part 1 completed,Pics_Only_Dutch,5,,Part 1 completed,Accuracy_level_0.55,,"<div style=""font-size:60px;"">  </div>",,,,html-keyboard-response,11,287391,0.0-1.2-0.5,,,,,,,
13,1647711229140,19/03/2022 17:33:49,1647711228790,1,19/03/2022 18:33:48,73265,15,task-mxe3,,20561664,BLIND,6052332,Intro Experiment: General explanations,complete,,,computer,Desktop or Laptop,Mac OS 10.15.7,Safari 15.1,1440x900,1440x820,Part 1 completed,Pics_Only_Dutch,5,,Part 1 completed,Accuracy_level_0.55,318,/task/320041/5/asset/glass.jpg,,,j,image-keyboard-response,12,288897,0.0-1.2-1.5,,,test,,0.5833333333333334,,0.16161666666666666
14,1647711229352,19/03/2022 17:33:49,1647711228896,1,19/03/2022 18:33:48,73265,15,task-mxe3,,20561664,BLIND,6052332,Intro Experiment: General explanations,complete,,,computer,Desktop or Laptop,Mac OS 10.15.7,Safari 15.1,1440x900,1440x820,Part 1 completed,Pics_Only_Dutch,5,,Part 1 completed,Accuracy_level_0.55,,"<div style=""font-size:60px;"">  </div>",,,,html-keyboard-response,13,289003,0.0-1.3-0.6,,,,,,,
15,1647711230499,19/03/2022 17:33:50,1647711230401,1,19/03/2022 18:33:50,73265,15,task-mxe3,,20561664,BLIND,6052332,Intro Experiment: General explanations,complete,,,computer,Desktop or Laptop,Mac OS 10.15.7,Safari 15.1,1440x900,1440x820,Part 1 completed,Pics_Only_Dutch,5,,Part 1 completed,Accuracy_level_0.55,777,/task/320041/5/asset/truck.jpg,,,f,image-keyboard-response,14,290508,0.0-1.3-1.6,,,test,,0.525,,0.18846666666666667
16,1647711230599,19/03/2022 17:33:50,1647711230506,1,19/03/2022 18:33:50,73265,15,task-mxe3,,20561664,BLIND,6052332,Intro Experiment: General explanations,complete,,,computer,Desktop or Laptop,Mac OS 10.15.7,Safari 15.1,1440x900,1440x820,Part 1 completed,Pics_Only_Dutch,5,,Part 1 completed,Accuracy_level_0.55,,"<div style=""font-size:60px;"">  </div>",,,,html-keyboard-response,15,290614,0.0-1.3-0.7,,,,,,,
17,1647711232118,19/03/2022 17:33:52,1647711232021,1,19/03/2022 18:33:52,73265,15,task-mxe3,,20561664,BLIND,6052332,Intro Experiment: General explanations,complete,,,computer,Desktop or Laptop,Mac OS 10.15.7,Safari 15.1,1440x900,1440x820,Part 1 completed,Pics_Only_Dutch,5,,Part 1 completed,Accuracy_level_0.55,421,/task/320041/5/asset/truck.jpg,,,f,image-keyboard-response,16,292129,0.0-1.3-1.7,,,test,,0.49000000000000005,,0.21546666666666667
1,1647702373474,19/03/2022 15:06:13,1647702372461,1,19/03/2022 16:06:12,73265,15,task-mxe3,,20558886,BLIND,6077360,Intro Experiment: General explanations,complete,,,computer,Desktop or Laptop,Windows 10,Chrome 99.0.4844.74,1536x864,1536x754,Part 1 completed,Pics_Only_Dutch,5,,Part 1 completed,Accuracy_level_0.55,25696,,,,,instructions,0,25702,0.0-0.0,,,,,,,
2,1647702373575,19/03/2022 15:06:13,1647702372565,1,19/03/2022 16:06:12,73265,15,task-mxe3,,20558886,BLIND,6077360,Intro Experiment: General explanations,complete,,,computer,Desktop or Laptop,Windows 10,Chrome 99.0.4844.74,1536x864,1536x754,Part 1 completed,Pics_Only_Dutch,5,,Part 1 completed,Accuracy_level_0.55,,"<div style=""font-size:60px;"">  </div>",,,,html-keyboard-response,1,25808,0.0-1.0-0.0,,,,,,,
3,1647702375020,19/03/2022 15:06:15,1647702374076,1,19/03/2022 16:06:14,73265,15,task-mxe3,,20558886,BLIND,6077360,Intro Experiment: General explanations,complete,,,computer,Desktop or Laptop,Windows 10,Chrome 99.0.4844.74,1536x864,1536x754,Part 1 completed,Pics_Only_Dutch,5,,Part 1 completed,Accuracy_level_0.55,476.5,/task/320041/5/asset/glass.jpg,,,j,image-keyboard-response,2,27319,0.0-1.0-1.0,,,test,,-0.175,,0.026933333333333333
4,1647702375138,19/03/2022 15:06:15,1647702374182,1,19/03/2022 16:06:14,73265,15,task-mxe3,,20558886,BLIND,6077360,Intro Experiment: General explanations,complete,,,computer,Desktop or Laptop,Windows 10,Chrome 99.0.4844.74,1536x864,1536x754,Part 1 completed,Pics_Only_Dutch,5,,Part 1 completed,Accuracy_level_0.55,,"<div style=""font-size:60px;"">  </div>",,,,html-keyboard-response,3,27426,0.0-1.0-0.1,,,,,,,
5,1647702376771,19/03/2022 15:06:16,1647702375689,1,19/03/2022 16:06:15,73265,15,task-mxe3,,20558886,BLIND,6077360,Intro Experiment: General explanations,complete,,,computer,Desktop or Laptop,Windows 10,Chrome 99.0.4844.74,1536x864,1536x754,Part 1 completed,Pics_Only_Dutch,5,,Part 1 completed,Accuracy_level_0.55,950.3999996185303,/task/320041/5/asset/pear.jpg,,,j,image-keyboard-response,4,28932,0.0-1.0-1.1,,,test,,-0.7,,0.053816666666666665
6,1647702376828,19/03/2022 15:06:16,1647702375799,1,19/03/2022 16:06:15,73265,15,task-mxe3,,20558886,BLIND,6077360,Intro Experiment: General explanations,complete,,,computer,Desktop or Laptop,Windows 10,Chrome 99.0.4844.74,1536x864,1536x754,Part 1 completed,Pics_Only_Dutch,5,,Part 1 completed,Accuracy_level_0.55,,"<div style=""font-size:60px;"">  </div>",,,,html-keyboard-response,5,29042,0.0-1.1-0.2,,,,,,,
7,1647702378250,19/03/2022 15:06:18,1647702377314,1,19/03/2022 16:06:17,73265,15,task-mxe3,,20558886,BLIND,6077360,Intro Experiment: General explanations,complete,,,computer,Desktop or Laptop,Windows 10,Chrome 99.0.4844.74,1536x864,1536x754,Part 1 completed,Pics_Only_Dutch,5,,Part 1 completed,Accuracy_level_0.55,564.1000003814697,/task/320041/5/asset/comb.jpg,,,j,image-keyboard-response,6,30558,0.0-1.1-1.2,,,test,,,,0.0809
8,1647702378364,19/03/2022 15:06:18,1647702377420,1,19/03/2022 16:06:17,73265,15,task-mxe3,,20558886,BLIND,6077360,Intro Experiment: General explanations,complete,,,computer,Desktop or Laptop,Windows 10,Chrome 99.0.4844.74,1536x864,1536x754,Part 1 completed,Pics_Only_Dutch,5,,Part 1 completed,Accuracy_level_0.55,,"<div style=""font-size:60px;"">  </div>",,,,html-keyboard-response,7,30664,0.0-1.1-0.3,,,,,,,
9,1647702379865,19/03/2022 15:06:19,1647702378924,1,19/03/2022 16:06:18,73265,15,task-mxe3,,20558886,BLIND,6077360,Intro Experiment: General explanations,complete,,,computer,Desktop or Laptop,Windows 10,Chrome 99.0.4844.74,1536x864,1536x754,Part 1 completed,Pics_Only_Dutch,5,,Part 1 completed,Accuracy_level_0.55,730.5,/task/320041/5/asset/plane.jpg,,,f,image-keyboard-response,8,32168,0.0-1.1-1.3,,,test,,1.4,,0.10773333333333333
10,1647702379975,19/03/2022 15:06:19,1647702379029,1,19/03/2022 16:06:19,73265,15,task-mxe3,,20558886,BLIND,6077360,Intro Experiment: General explanations,complete,,,computer,Desktop or Laptop,Windows 10,Chrome 99.0.4844.74,1536x864,1536x754,Part 1 completed,Pics_Only_Dutch,5,,Part 1 completed,Accuracy_level_0.55,,"<div style=""font-size:60px;"">  </div>",,,,html-keyboard-response,9,32273,0.0-1.2-0.4,,,,,,,
11,1647702381496,19/03/2022 15:06:21,1647702380536,1,19/03/2022 16:06:20,73265,15,task-mxe3,,20558886,BLIND,6077360,Intro Experiment: General explanations,complete,,,computer,Desktop or Laptop,Windows 10,Chrome 99.0.4844.74,1536x864,1536x754,Part 1 completed,Pics_Only_Dutch,5,,Part 1 completed,Accuracy_level_0.55,552.5,/task/320041/5/asset/glass.jpg,,,j,image-keyboard-response,10,33780,0.0-1.2-1.4,,,test,,0.875,,0.1346
12,1647702381594,19/03/2022 15:06:21,1647702380639,1,19/03/2022 16:06:20,73265,15,task-mxe3,,20558886,BLIND,6077360,Intro Experiment: General explanations,complete,,,computer,Desktop or Laptop,Windows 10,Chrome 99.0.4844.74,1536x864,1536x754,Part 1 completed,Pics_Only_Dutch,5,,Part 1 completed,Accuracy_level_0.55,,"<div style=""font-size:60px;"">  </div>",,,,html-keyboard-response,11,33883,0.0-1.2-0.5,,,,,,,
13,1647702383100,19/03/2022 15:06:23,1647702382143,1,19/03/2022 16:06:22,73265,15,task-mxe3,,20558886,BLIND,6077360,Intro Experiment: General explanations,complete,,,computer,Desktop or Laptop,Windows 10,Chrome 99.0.4844.74,1536x864,1536x754,Part 1 completed,Pics_Only_Dutch,5,,Part 1 completed,Accuracy_level_0.55,402.90000009536743,/task/320041/5/asset/pear.jpg,,,j,image-keyboard-response,12,35387,0.0-1.2-1.5,,,test,,0.7000000000000001,,0.16138333333333332
14,1647702383233,19/03/2022 15:06:23,1647702382247,1,19/03/2022 16:06:22,73265,15,task-mxe3,,20558886,BLIND,6077360,Intro Experiment: General explanations,complete,,,computer,Desktop or Laptop,Windows 10,Chrome 99.0.4844.74,1536x864,1536x754,Part 1 completed,Pics_Only_Dutch,5,,Part 1 completed,Accuracy_level_0.55,,"<div style=""font-size:60px;"">  </div>",,,,html-keyboard-response,13,35491,0.0-1.3-0.6,,,,,,,
15,1647702384716,19/03/2022 15:06:24,1647702383754,1,19/03/2022 16:06:23,73265,15,task-mxe3,,20558886,BLIND,6077360,Intro Experiment: General explanations,complete,,,computer,Desktop or Laptop,Windows 10,Chrome 99.0.4844.74,1536x864,1536x754,Part 1 completed,Pics_Only_Dutch,5,,Part 1 completed,Accuracy_level_0.55,658,/task/320041/5/asset/elephant.jpg,,,f,image-keyboard-response,14,36998,0.0-1.3-1.6,,,test,,0.6125,,0.18823333333333334
16,1647702384803,19/03/2022 15:06:24,1647702383857,1,19/03/2022 16:06:23,73265,15,task-mxe3,,20558886,BLIND,6077360,Intro Experiment: General explanations,complete,,,computer,Desktop or Laptop,Windows 10,Chrome 99.0.4844.74,1536x864,1536x754,Part 1 completed,Pics_Only_Dutch,5,,Part 1 completed,Accuracy_level_0.55,,"<div style=""font-size:60px;"">  </div>",,,,html-keyboard-response,15,37101,0.0-1.3-0.7,,,,,,,
17,1647702386313,19/03/2022 15:06:26,1647702385361,1,19/03/2022 16:06:25,73265,15,task-mxe3,,20558886,BLIND,6077360,Intro Experiment: General explanations,complete,,,computer,Desktop or Laptop,Windows 10,Chrome 99.0.4844.74,1536x864,1536x754,Part 1 completed,Pics_Only_Dutch,5,,Part 1 completed,Accuracy_level_0.55,522.5999999046326,/task/320041/5/asset/comb.jpg,,,j,image-keyboard-response,16,38605,0.0-1.3-1.7,,,test,,0.5599999999999999,,0.21501666666666666
1,1647596547738,18/03/2022 09:42:27,1647596547615,1,18/03/2022 10:42:27,73265,15,task-mxe3,,20523240,BLIND,6062612,Intro Experiment: General explanations,complete,,,computer,Desktop or Laptop,Mac OS 10.15.7,Chrome 98.0.4758.102,1440x900,1440x789,Part 1 completed,Pics_Only_Dutch,5,,Part 1 completed,Accuracy_level_0.55,47512.5,,,,,instructions,0,47518,0.0-0.0,,,,,,,
2,1647596547856,18/03/2022 09:42:27,1647596547737,1,18/03/2022 10:42:27,73265,15,task-mxe3,,20523240,BLIND,6062612,Intro Experiment: General explanations,complete,,,computer,Desktop or Laptop,Mac OS 10.15.7,Chrome 98.0.4758.102,1440x900,1440x789,Part 1 completed,Pics_Only_Dutch,5,,Part 1 completed,Accuracy_level_0.55,,"<div style=""font-size:60px;"">  </div>",,,,html-keyboard-response,1,47641,0.0-1.0-0.0,,,,,,,
3,1647596549305,18/03/2022 09:42:29,1647596549244,1,18/03/2022 10:42:29,73265,15,task-mxe3,,20523240,BLIND,6062612,Intro Experiment: General explanations,complete,,,computer,Desktop or Laptop,Mac OS 10.15.7,Chrome 98.0.4758.102,1440x900,1440x789,Part 1 completed,Pics_Only_Dutch,5,,Part 1 completed,Accuracy_level_0.55,1052.300000011921,/task/320041/5/asset/pear.jpg,,,j,image-keyboard-response,2,49148,0.0-1.0-1.0,,,test,,-0.175,,0.027166666666666665
4,1647596549415,18/03/2022 09:42:29,1647596549348,1,18/03/2022 10:42:29,73265,15,task-mxe3,,20523240,BLIND,6062612,Intro Experiment: General explanations,complete,,,computer,Desktop or Laptop,Mac OS 10.15.7,Chrome 98.0.4758.102,1440x900,1440x789,Part 1 completed,Pics_Only_Dutch,5,,Part 1 completed,Accuracy_level_0.55,,"<div style=""font-size:60px;"">  </div>",,,,html-keyboard-response,3,49252,0.0-1.0-0.1,,,,,,,
5,1647596550919,18/03/2022 09:42:30,1647596550851,1,18/03/2022 10:42:30,73265,15,task-mxe3,,20523240,BLIND,6062612,Intro Experiment: General explanations,complete,,,computer,Desktop or Laptop,Mac OS 10.15.7,Chrome 98.0.4758.102,1440x900,1440x789,Part 1 completed,Pics_Only_Dutch,5,,Part 1 completed,Accuracy_level_0.55,765.1999999880791,/task/320041/5/asset/plane.jpg,,,f,image-keyboard-response,4,50754,0.0-1.0-1.1,,,test,,-0.7,,0.05395
6,1647596551018,18/03/2022 09:42:31,1647596550956,1,18/03/2022 10:42:30,73265,15,task-mxe3,,20523240,BLIND,6062612,Intro Experiment: General explanations,complete,,,computer,Desktop or Laptop,Mac OS 10.15.7,Chrome 98.0.4758.102,1440x900,1440x789,Part 1 completed,Pics_Only_Dutch,5,,Part 1 completed,Accuracy_level_0.55,,"<div style=""font-size:60px;"">  </div>",,,,html-keyboard-response,5,50860,0.0-1.1-0.2,,,,,,,
7,1647596552503,18/03/2022 09:42:32,1647596552459,1,18/03/2022 10:42:32,73265,15,task-mxe3,,20523240,BLIND,6062612,Intro Experiment: General explanations,complete,,,computer,Desktop or Laptop,Mac OS 10.15.7,Chrome 98.0.4758.102,1440x900,1440x789,Part 1 completed,Pics_Only_Dutch,5,,Part 1 completed,Accuracy_level_0.55,691.3999999761581,/task/320041/5/asset/comb.jpg,,,j,image-keyboard-response,6,52363,0.0-1.1-1.2,,,test,,,,0.08075
8,1647596552615,18/03/2022 09:42:32,1647596552563,1,18/03/2022 10:42:32,73265,15,task-mxe3,,20523240,BLIND,6062612,Intro Experiment: General explanations,complete,,,computer,Desktop or Laptop,Mac OS 10.15.7,Chrome 98.0.4758.102,1440x900,1440x789,Part 1 completed,Pics_Only_Dutch,5,,Part 1 completed,Accuracy_level_0.55,,"<div style=""font-size:60px;"">  </div>",,,,html-keyboard-response,7,52467,0.0-1.1-0.3,,,,,,,
9,1647596554113,18/03/2022 09:42:34,1647596554067,1,18/03/2022 10:42:34,73265,15,task-mxe3,,20523240,BLIND,6062612,Intro Experiment: General explanations,complete,,,computer,Desktop or Laptop,Mac OS 10.15.7,Chrome 98.0.4758.102,1440x900,1440x789,Part 1 completed,Pics_Only_Dutch,5,,Part 1 completed,Accuracy_level_0.55,668,/task/320041/5/asset/glass.jpg,,,j,image-keyboard-response,8,53970,0.0-1.1-1.3,,,test,,1.05,,0.10755
10,1647596554313,18/03/2022 09:42:34,1647596554271,1,18/03/2022 10:42:34,73265,15,task-mxe3,,20523240,BLIND,6062612,Intro Experiment: General explanations,complete,,,computer,Desktop or Laptop,Mac OS 10.15.7,Chrome 98.0.4758.102,1440x900,1440x789,Part 1 completed,Pics_Only_Dutch,5,,Part 1 completed,Accuracy_level_0.55,,"<span style=""color:red;font-size:50px;font-weight: bold;"">FOUT!</span>",,,,html-keyboard-response,9,54175,0.0-1.1-2.3-0.3,,,,,,,
11,1647596554408,18/03/2022 09:42:34,1647596554375,1,18/03/2022 10:42:34,73265,15,task-mxe3,,20523240,BLIND,6062612,Intro Experiment: General explanations,complete,,,computer,Desktop or Laptop,Mac OS 10.15.7,Chrome 98.0.4758.102,1440x900,1440x789,Part 1 completed,Pics_Only_Dutch,5,,Part 1 completed,Accuracy_level_0.55,,"<div style=""font-size:60px;"">  </div>",,,,html-keyboard-response,10,54278,0.0-1.2-0.4,,,,,,,
12,1647596555924,18/03/2022 09:42:35,1647596555882,1,18/03/2022 10:42:35,73265,15,task-mxe3,,20523240,BLIND,6062612,Intro Experiment: General explanations,complete,,,computer,Desktop or Laptop,Mac OS 10.15.7,Chrome 98.0.4758.102,1440x900,1440x789,Part 1 completed,Pics_Only_Dutch,5,,Part 1 completed,Accuracy_level_0.55,855.5999999642372,/task/320041/5/asset/comb.jpg,,,j,image-keyboard-response,11,55786,0.0-1.2-1.4,,,test,,0.5599999999999999,,0.1378
13,1647596556019,18/03/2022 09:42:36,1647596555985,1,18/03/2022 10:42:35,73265,15,task-mxe3,,20523240,BLIND,6062612,Intro Experiment: General explanations,complete,,,computer,Desktop or Laptop,Mac OS 10.15.7,Chrome 98.0.4758.102,1440x900,1440x789,Part 1 completed,Pics_Only_Dutch,5,,Part 1 completed,Accuracy_level_0.55,,"<div style=""font-size:60px;"">  </div>",,,,html-keyboard-response,12,55889,0.0-1.2-0.5,,,,,,,
14,1647596557536,18/03/2022 09:42:37,1647596557491,1,18/03/2022 10:42:37,73265,15,task-mxe3,,20523240,BLIND,6062612,Intro Experiment: General explanations,complete,,,computer,Desktop or Laptop,Mac OS 10.15.7,Chrome 98.0.4758.102,1440x900,1440x789,Part 1 completed,Pics_Only_Dutch,5,,Part 1 completed,Accuracy_level_0.55,670.9000000357628,/task/320041/5/asset/elephant.jpg,,,f,image-keyboard-response,13,57395,0.0-1.2-1.5,,,test,,0.5,,0.16461666666666666
15,1647596557644,18/03/2022 09:42:37,1647596557592,1,18/03/2022 10:42:37,73265,15,task-mxe3,,20523240,BLIND,6062612,Intro Experiment: General explanations,complete,,,computer,Desktop or Laptop,Mac OS 10.15.7,Chrome 98.0.4758.102,1440x900,1440x789,Part 1 completed,Pics_Only_Dutch,5,,Part 1 completed,Accuracy_level_0.55,,"<div style=""font-size:60px;"">  </div>",,,,html-keyboard-response,14,57496,0.0-1.3-0.6,,,,,,,
16,1647596559181,18/03/2022 09:42:39,1647596559095,1,18/03/2022 10:42:39,73265,15,task-mxe3,,20523240,BLIND,6062612,Intro Experiment: General explanations,complete,,,computer,Desktop or Laptop,Mac OS 10.15.7,Chrome 98.0.4758.102,1440x900,1440x789,Part 1 completed,Pics_Only_Dutch,5,,Part 1 completed,Accuracy_level_0.55,466.80000001192093,/task/320041/5/asset/elephant.jpg,,,f,image-keyboard-response,15,58999,0.0-1.3-1.6,,,test,,0.4666666666666667,,0.19135
17,1647596559262,18/03/2022 09:42:39,1647596559201,1,18/03/2022 10:42:39,73265,15,task-mxe3,,20523240,BLIND,6062612,Intro Experiment: General explanations,complete,,,computer,Desktop or Laptop,Mac OS 10.15.7,Chrome 98.0.4758.102,1440x900,1440x789,Part 1 completed,Pics_Only_Dutch,5,,Part 1 completed,Accuracy_level_0.55,,"<div style=""font-size:60px;"">  </div>",,,,html-keyboard-response,16,59105,0.0-1.3-0.7,,,,,,,
18,1647596560769,18/03/2022 09:42:40,1647596560705,1,18/03/2022 10:42:40,73265,15,task-mxe3,,20523240,BLIND,6062612,Intro Experiment: General explanations,complete,,,computer,Desktop or Laptop,Mac OS 10.15.7,Chrome 98.0.4758.102,1440x900,1440x789,Part 1 completed,Pics_Only_Dutch,5,,Part 1 completed,Accuracy_level_0.55,704.1000000238419,/task/320041/5/asset/plane.jpg,,,f,image-keyboard-response,17,60609,0.0-1.3-1.7,,,test,,0.4454545454545455,,0.21818333333333334
1,1647358502046,15/03/2022 15:35:02,1647358504833,1,15/03/2022 16:35:04,73265,15,task-mxe3,,20408971,BLIND,6003084,Intro Experiment: General explanations,complete,,,computer,Desktop or Laptop,Mac OS 10.14.6,Chrome 99.0.4844.51,1280x800,1244x612,Part 1 completed,Pics_Only_Dutch,5,,Part 1 completed,Accuracy_level_0.55,30241.59999999404,,,,,instructions,0,30247,0.0-0.0,,,,,,,
2,1647358502113,15/03/2022 15:35:02,1647358504952,1,15/03/2022 16:35:04,73265,15,task-mxe3,,20408971,BLIND,6003084,Intro Experiment: General explanations,complete,,,computer,Desktop or Laptop,Mac OS 10.14.6,Chrome 99.0.4844.51,1280x800,1244x612,Part 1 completed,Pics_Only_Dutch,5,,Part 1 completed,Accuracy_level_0.55,,"<div style=""font-size:60px;"">  </div>",,,,html-keyboard-response,1,30367,0.0-1.0-0.0,,,,,,,
3,1647358503617,15/03/2022 15:35:03,1647358506458,1,15/03/2022 16:35:06,73265,15,task-mxe3,,20408971,BLIND,6003084,Intro Experiment: General explanations,complete,,,computer,Desktop or Laptop,Mac OS 10.14.6,Chrome 99.0.4844.51,1280x800,1244x612,Part 1 completed,Pics_Only_Dutch,5,,Part 1 completed,Accuracy_level_0.55,1166.0999999940395,/task/320041/5/asset/truck.jpg,,,f,image-keyboard-response,2,31872,0.0-1.0-1.0,,,test,,-0.175,,0.0271
4,1647358503710,15/03/2022 15:35:03,1647358506564,1,15/03/2022 16:35:06,73265,15,task-mxe3,,20408971,BLIND,6003084,Intro Experiment: General explanations,complete,,,computer,Desktop or Laptop,Mac OS 10.14.6,Chrome 99.0.4844.51,1280x800,1244x612,Part 1 completed,Pics_Only_Dutch,5,,Part 1 completed,Accuracy_level_0.55,,"<div style=""font-size:60px;"">  </div>",,,,html-keyboard-response,3,31979,0.0-1.0-0.1,,,,,,,
5,1647358505211,15/03/2022 15:35:05,1647358508067,1,15/03/2022 16:35:08,73265,15,task-mxe3,,20408971,BLIND,6003084,Intro Experiment: General explanations,complete,,,computer,Desktop or Laptop,Mac OS 10.14.6,Chrome 99.0.4844.51,1280x800,1244x612,Part 1 completed,Pics_Only_Dutch,5,,Part 1 completed,Accuracy_level_0.55,729.3999999910593,/task/320041/5/asset/house.jpg,,,f,image-keyboard-response,4,33481,0.0-1.0-1.1,,,test,,-0.7,,0.05391666666666667
6,1647358505334,15/03/2022 15:35:05,1647358508172,1,15/03/2022 16:35:08,73265,15,task-mxe3,,20408971,BLIND,6003084,Intro Experiment: General explanations,complete,,,computer,Desktop or Laptop,Mac OS 10.14.6,Chrome 99.0.4844.51,1280x800,1244x612,Part 1 completed,Pics_Only_Dutch,5,,Part 1 completed,Accuracy_level_0.55,,"<div style=""font-size:60px;"">  </div>",,,,html-keyboard-response,5,33587,0.0-1.1-0.2,,,,,,,
7,1647358506838,15/03/2022 15:35:06,1647358509682,1,15/03/2022 16:35:09,73265,15,task-mxe3,,20408971,BLIND,6003084,Intro Experiment: General explanations,complete,,,computer,Desktop or Laptop,Mac OS 10.14.6,Chrome 99.0.4844.51,1280x800,1244x612,Part 1 completed,Pics_Only_Dutch,5,,Part 1 completed,Accuracy_level_0.55,,/task/320041/5/asset/key.png,,,j,image-keyboard-response,6,35097,0.0-1.1-1.2,,,test,,,,0.08083333333333333
8,1647358507024,15/03/2022 15:35:07,1647358509886,1,15/03/2022 16:35:09,73265,15,task-mxe3,,20408971,BLIND,6003084,Intro Experiment: General explanations,complete,,,computer,Desktop or Laptop,Mac OS 10.14.6,Chrome 99.0.4844.51,1280x800,1244x612,Part 1 completed,Pics_Only_Dutch,5,,Part 1 completed,Accuracy_level_0.55,,"<span style=""color:red;font-size:50px;font-weight: bold;"">FOUT!</span>",,,,html-keyboard-response,7,35301,0.0-1.1-2.2-0.2,,,,,,,
9,1647358507154,15/03/2022 15:35:07,1647358509991,1,15/03/2022 16:35:09,73265,15,task-mxe3,,20408971,BLIND,6003084,Intro Experiment: General explanations,complete,,,computer,Desktop or Laptop,Mac OS 10.14.6,Chrome 99.0.4844.51,1280x800,1244x612,Part 1 completed,Pics_Only_Dutch,5,,Part 1 completed,Accuracy_level_0.55,,"<div style=""font-size:60px;"">  </div>",,,,html-keyboard-response,8,35406,0.0-1.1-0.3,,,,,,,
10,1647358508775,15/03/2022 15:35:08,1647358511497,1,15/03/2022 16:35:11,73265,15,task-mxe3,,20408971,BLIND,6003084,Intro Experiment: General explanations,complete,,,computer,Desktop or Laptop,Mac OS 10.14.6,Chrome 99.0.4844.51,1280x800,1244x612,Part 1 completed,Pics_Only_Dutch,5,,Part 1 completed,Accuracy_level_0.55,894.7000000029802,/task/320041/5/asset/glass.jpg,,,j,image-keyboard-response,9,36912,0.0-1.1-1.3,,,test,,0.7000000000000001,,0.11108333333333334
11,1647358508830,15/03/2022 15:35:08,1647358511602,1,15/03/2022 16:35:11,73265,15,task-mxe3,,20408971,BLIND,6003084,Intro Experiment: General explanations,complete,,,computer,Desktop or Laptop,Mac OS 10.14.6,Chrome 99.0.4844.51,1280x800,1244x612,Part 1 completed,Pics_Only_Dutch,5,,Part 1 completed,Accuracy_level_0.55,,"<div style=""font-size:60px;"">  </div>",,,,html-keyboard-response,10,37017,0.0-1.2-0.4,,,,,,,
12,1647358510251,15/03/2022 15:35:10,1647358513108,1,15/03/2022 16:35:13,73265,15,task-mxe3,,20408971,BLIND,6003084,Intro Experiment: General explanations,complete,,,computer,Desktop or Laptop,Mac OS 10.14.6,Chrome 99.0.4844.51,1280x800,1244x612,Part 1 completed,Pics_Only_Dutch,5,,Part 1 completed,Accuracy_level_0.55,784,/task/320041/5/asset/plane.jpg,,,f,image-keyboard-response,11,38523,0.0-1.2-1.4,,,test,,0.5599999999999999,,0.13793333333333332
13,1647358510360,15/03/2022 15:35:10,1647358513212,1,15/03/2022 16:35:13,73265,15,task-mxe3,,20408971,BLIND,6003084,Intro Experiment: General explanations,complete,,,computer,Desktop or Laptop,Mac OS 10.14.6,Chrome 99.0.4844.51,1280x800,1244x612,Part 1 completed,Pics_Only_Dutch,5,,Part 1 completed,Accuracy_level_0.55,,"<div style=""font-size:60px;"">  </div>",,,,html-keyboard-response,12,38627,0.0-1.2-0.5,,,,,,,
14,1647358511864,15/03/2022 15:35:11,1647358514718,1,15/03/2022 16:35:14,73265,15,task-mxe3,,20408971,BLIND,6003084,Intro Experiment: General explanations,complete,,,computer,Desktop or Laptop,Mac OS 10.14.6,Chrome 99.0.4844.51,1280x800,1244x612,Part 1 completed,Pics_Only_Dutch,5,,Part 1 completed,Accuracy_level_0.55,738.6000000089407,/task/320041/5/asset/elephant.jpg,,,f,image-keyboard-response,13,40133,0.0-1.2-1.5,,,test,,0.5,,0.16476666666666667
15,1647358511967,15/03/2022 15:35:11,1647358514823,1,15/03/2022 16:35:14,73265,15,task-mxe3,,20408971,BLIND,6003084,Intro Experiment: General explanations,complete,,,computer,Desktop or Laptop,Mac OS 10.14.6,Chrome 99.0.4844.51,1280x800,1244x612,Part 1 completed,Pics_Only_Dutch,5,,Part 1 completed,Accuracy_level_0.55,,"<div style=""font-size:60px;"">  </div>",,,,html-keyboard-response,14,40238,0.0-1.3-0.6,,,,,,,
16,1647358513476,15/03/2022 15:35:13,1647358516327,1,15/03/2022 16:35:16,73265,15,task-mxe3,,20408971,BLIND,6003084,Intro Experiment: General explanations,complete,,,computer,Desktop or Laptop,Mac OS 10.14.6,Chrome 99.0.4844.51,1280x800,1244x612,Part 1 completed,Pics_Only_Dutch,5,,Part 1 completed,Accuracy_level_0.55,722.5,/task/320041/5/asset/pear.jpg,,,j,image-keyboard-response,15,41742,0.0-1.3-1.6,,,test,,0.4666666666666667,,0.19158333333333333
17,1647358513570,15/03/2022 15:35:13,1647358516431,1,15/03/2022 16:35:16,73265,15,task-mxe3,,20408971,BLIND,6003084,Intro Experiment: General explanations,complete,,,computer,Desktop or Laptop,Mac OS 10.14.6,Chrome 99.0.4844.51,1280x800,1244x612,Part 1 completed,Pics_Only_Dutch,5,,Part 1 completed,Accuracy_level_0.55,,"<div style=""font-size:60px;"">  </div>",,,,html-keyboard-response,16,41845,0.0-1.3-0.7,,,,,,,
18,1647358515081,15/03/2022 15:35:15,1647358517938,1,15/03/2022 16:35:17,73265,15,task-mxe3,,20408971,BLIND,6003084,Intro Experiment: General explanations,complete,,,computer,Desktop or Laptop,Mac OS 10.14.6,Chrome 99.0.4844.51,1280x800,1244x612,Part 1 completed,Pics_Only_Dutch,5,,Part 1 completed,Accuracy_level_0.55,614.2999999970198,/task/320041/5/asset/house.jpg,,,f,image-keyboard-response,17,43353,0.0-1.3-1.7,,,test,,0.4454545454545455,,0.21843333333333334
1,1647349683825,15/03/2022 13:08:03,1647349683695,1,15/03/2022 14:08:03,73265,15,task-mxe3,,20402009,BLIND,5973170,Intro Experiment: General explanations,complete,,,computer,Desktop or Laptop,Mac OS 10.15.7,Chrome 99.0.4844.51,1440x900,1440x766,Part 1 completed,Pics_Only_Dutch,5,,Part 1 completed,Accuracy_level_0.55,32404.69999999972,,,,,instructions,0,32409,0.0-0.0,,,,,,,
2,1647349683916,15/03/2022 13:08:03,1647349683817,1,15/03/2022 14:08:03,73265,15,task-mxe3,,20402009,BLIND,5973170,Intro Experiment: General explanations,complete,,,computer,Desktop or Laptop,Mac OS 10.15.7,Chrome 99.0.4844.51,1440x900,1440x766,Part 1 completed,Pics_Only_Dutch,5,,Part 1 completed,Accuracy_level_0.55,,"<div style=""font-size:60px;"">  </div>",,,,html-keyboard-response,1,32532,0.0-1.0-0.0,,,,,,,
3,1647349685403,15/03/2022 13:08:05,1647349685324,1,15/03/2022 14:08:05,73265,15,task-mxe3,,20402009,BLIND,5973170,Intro Experiment: General explanations,complete,,,computer,Desktop or Laptop,Mac OS 10.15.7,Chrome 99.0.4844.51,1440x900,1440x766,Part 1 completed,Pics_Only_Dutch,5,,Part 1 completed,Accuracy_level_0.55,,/task/320041/5/asset/key.png,,,j,image-keyboard-response,2,34038,0.0-1.0-1.0,,,test,,0,,0.027166666666666665
4,1647349685527,15/03/2022 13:08:05,1647349685429,1,15/03/2022 14:08:05,73265,15,task-mxe3,,20402009,BLIND,5973170,Intro Experiment: General explanations,complete,,,computer,Desktop or Laptop,Mac OS 10.15.7,Chrome 99.0.4844.51,1440x900,1440x766,Part 1 completed,Pics_Only_Dutch,5,,Part 1 completed,Accuracy_level_0.55,,"<div style=""font-size:60px;"">  </div>",,,,html-keyboard-response,3,34144,0.0-1.0-0.1,,,,,,,
5,1647349687014,15/03/2022 13:08:07,1647349686933,1,15/03/2022 14:08:06,73265,15,task-mxe3,,20402009,BLIND,5973170,Intro Experiment: General explanations,complete,,,computer,Desktop or Laptop,Mac OS 10.15.7,Chrome 99.0.4844.51,1440x900,1440x766,Part 1 completed,Pics_Only_Dutch,5,,Part 1 completed,Accuracy_level_0.55,,/task/320041/5/asset/key.png,,,j,image-keyboard-response,4,35648,0.0-1.0-1.1,,,test,,0,,0.053983333333333335
6,1647349687126,15/03/2022 13:08:07,1647349687038,1,15/03/2022 14:08:07,73265,15,task-mxe3,,20402009,BLIND,5973170,Intro Experiment: General explanations,complete,,,computer,Desktop or Laptop,Mac OS 10.15.7,Chrome 99.0.4844.51,1440x900,1440x766,Part 1 completed,Pics_Only_Dutch,5,,Part 1 completed,Accuracy_level_0.55,,"<div style=""font-size:60px;"">  </div>",,,,html-keyboard-response,5,35753,0.0-1.1-0.2,,,,,,,
7,1647349688642,15/03/2022 13:08:08,1647349688544,1,15/03/2022 14:08:08,73265,15,task-mxe3,,20402009,BLIND,5973170,Intro Experiment: General explanations,complete,,,computer,Desktop or Laptop,Mac OS 10.15.7,Chrome 99.0.4844.51,1440x900,1440x766,Part 1 completed,Pics_Only_Dutch,5,,Part 1 completed,Accuracy_level_0.55,,/task/320041/5/asset/key.png,,,j,image-keyboard-response,6,37259,0.0-1.1-1.2,,,test,,,,0.08083333333333333
8,1647349688829,15/03/2022 13:08:08,1647349688747,1,15/03/2022 14:08:08,73265,15,task-mxe3,,20402009,BLIND,5973170,Intro Experiment: General explanations,complete,,,computer,Desktop or Laptop,Mac OS 10.15.7,Chrome 99.0.4844.51,1440x900,1440x766,Part 1 completed,Pics_Only_Dutch,5,,Part 1 completed,Accuracy_level_0.55,,"<span style=""color:red;font-size:50px;font-weight: bold;"">FOUT!</span>",,,,html-keyboard-response,7,37462,0.0-1.1-2.2-0.2,,,,,,,
9,1647349688935,15/03/2022 13:08:08,1647349688851,1,15/03/2022 14:08:08,73265,15,task-mxe3,,20402009,BLIND,5973170,Intro Experiment: General explanations,complete,,,computer,Desktop or Laptop,Mac OS 10.15.7,Chrome 99.0.4844.51,1440x900,1440x766,Part 1 completed,Pics_Only_Dutch,5,,Part 1 completed,Accuracy_level_0.55,,"<div style=""font-size:60px;"">  </div>",,,,html-keyboard-response,8,37566,0.0-1.1-0.3,,,,,,,
10,1647349690423,15/03/2022 13:08:10,1647349690355,1,15/03/2022 14:08:10,73265,15,task-mxe3,,20402009,BLIND,5973170,Intro Experiment: General explanations,complete,,,computer,Desktop or Laptop,Mac OS 10.15.7,Chrome 99.0.4844.51,1440x900,1440x766,Part 1 completed,Pics_Only_Dutch,5,,Part 1 completed,Accuracy_level_0.55,1266.8999999999069,/task/320041/5/asset/house.jpg,,,f,image-keyboard-response,9,39070,0.0-1.1-1.3,,,test,,0.2333333333333333,,0.11101666666666667
11,1647349690545,15/03/2022 13:08:10,1647349690459,1,15/03/2022 14:08:10,73265,15,task-mxe3,,20402009,BLIND,5973170,Intro Experiment: General explanations,complete,,,computer,Desktop or Laptop,Mac OS 10.15.7,Chrome 99.0.4844.51,1440x900,1440x766,Part 1 completed,Pics_Only_Dutch,5,,Part 1 completed,Accuracy_level_0.55,,"<div style=""font-size:60px;"">  </div>",,,,html-keyboard-response,10,39174,0.0-1.2-0.4,,,,,,,
12,1647349692108,15/03/2022 13:08:12,1647349691968,1,15/03/2022 14:08:11,73265,15,task-mxe3,,20402009,BLIND,5973170,Intro Experiment: General explanations,complete,,,computer,Desktop or Laptop,Mac OS 10.15.7,Chrome 99.0.4844.51,1440x900,1440x766,Part 1 completed,Pics_Only_Dutch,5,,Part 1 completed,Accuracy_level_0.55,,/task/320041/5/asset/key.png,,,j,image-keyboard-response,11,40682,0.0-1.2-1.4,,,test,,0.13999999999999999,,0.1379
13,1647349692242,15/03/2022 13:08:12,1647349692171,1,15/03/2022 14:08:12,73265,15,task-mxe3,,20402009,BLIND,5973170,Intro Experiment: General explanations,complete,,,computer,Desktop or Laptop,Mac OS 10.15.7,Chrome 99.0.4844.51,1440x900,1440x766,Part 1 completed,Pics_Only_Dutch,5,,Part 1 completed,Accuracy_level_0.55,,"<span style=""color:red;font-size:50px;font-weight: bold;"">FOUT!</span>",,,,html-keyboard-response,12,40886,0.0-1.2-2.4-0.4,,,,,,,
14,1647349692374,15/03/2022 13:08:12,1647349692275,1,15/03/2022 14:08:12,73265,15,task-mxe3,,20402009,BLIND,5973170,Intro Experiment: General explanations,complete,,,computer,Desktop or Laptop,Mac OS 10.15.7,Chrome 99.0.4844.51,1440x900,1440x766,Part 1 completed,Pics_Only_Dutch,5,,Part 1 completed,Accuracy_level_0.55,,"<div style=""font-size:60px;"">  </div>",,,,html-keyboard-response,13,40989,0.0-1.2-0.5,,,,,,,
15,1647349693866,15/03/2022 13:08:13,1647349693781,1,15/03/2022 14:08:13,73265,15,task-mxe3,,20402009,BLIND,5973170,Intro Experiment: General explanations,complete,,,computer,Desktop or Laptop,Mac OS 10.15.7,Chrome 99.0.4844.51,1440x900,1440x766,Part 1 completed,Pics_Only_Dutch,5,,Part 1 completed,Accuracy_level_0.55,,/task/320041/5/asset/key.png,,,j,image-keyboard-response,14,42495,0.0-1.2-1.5,,,test,,0.0875,,0.16811666666666666
16,1647349694068,15/03/2022 13:08:14,1647349693989,1,15/03/2022 14:08:13,73265,15,task-mxe3,,20402009,BLIND,5973170,Intro Experiment: General explanations,complete,,,computer,Desktop or Laptop,Mac OS 10.15.7,Chrome 99.0.4844.51,1440x900,1440x766,Part 1 completed,Pics_Only_Dutch,5,,Part 1 completed,Accuracy_level_0.55,,"<span style=""color:red;font-size:50px;font-weight: bold;"">FOUT!</span>",,,,html-keyboard-response,15,42704,0.0-1.2-2.5-0.5,,,,,,,
17,1647349694166,15/03/2022 13:08:14,1647349694092,1,15/03/2022 14:08:14,73265,15,task-mxe3,,20402009,BLIND,5973170,Intro Experiment: General explanations,complete,,,computer,Desktop or Laptop,Mac OS 10.15.7,Chrome 99.0.4844.51,1440x900,1440x766,Part 1 completed,Pics_Only_Dutch,5,,Part 1 completed,Accuracy_level_0.55,,"<div style=""font-size:60px;"">  </div>",,,,html-keyboard-response,16,42807,0.0-1.3-0.6,,,,,,,
18,1647349695688,15/03/2022 13:08:15,1647349695596,1,15/03/2022 14:08:15,73265,15,task-mxe3,,20402009,BLIND,5973170,Intro Experiment: General explanations,complete,,,computer,Desktop or Laptop,Mac OS 10.15.7,Chrome 99.0.4844.51,1440x900,1440x766,Part 1 completed,Pics_Only_Dutch,5,,Part 1 completed,Accuracy_level_0.55,,/task/320041/5/asset/glass.jpg,,,j,image-keyboard-response,17,44311,0.0-1.3-1.6,,,test,,0.06363636363636363,,0.19836666666666666
19,1647349695866,15/03/2022 13:08:15,1647349695800,1,15/03/2022 14:08:15,73265,15,task-mxe3,,20402009,BLIND,5973170,Intro Experiment: General explanations,complete,,,computer,Desktop or Laptop,Mac OS 10.15.7,Chrome 99.0.4844.51,1440x900,1440x766,Part 1 completed,Pics_Only_Dutch,5,,Part 1 completed,Accuracy_level_0.55,,"<span style=""color:red;font-size:50px;font-weight: bold;"">FOUT!</span>",,,,html-keyboard-response,18,44515,0.0-1.3-2.6-0.6,,,,,,,
20,1647349695986,15/03/2022 13:08:15,1647349695903,1,15/03/2022 14:08:15,73265,15,task-mxe3,,20402009,BLIND,5973170,Intro Experiment: General explanations,complete,,,computer,Desktop or Laptop,Mac OS 10.15.7,Chrome 99.0.4844.51,1440x900,1440x766,Part 1 completed,Pics_Only_Dutch,5,,Part 1 completed,Accuracy_level_0.55,,"<div style=""font-size:60px;"">  </div>",,,,html-keyboard-response,19,44618,0.0-1.3-0.7,,,,,,,
21,1647349697483,15/03/2022 13:08:17,1647349697407,1,15/03/2022 14:08:17,73265,15,task-mxe3,,20402009,BLIND,5973170,Intro Experiment: General explanations,complete,,,computer,Desktop or Laptop,Mac OS 10.15.7,Chrome 99.0.4844.51,1440x900,1440x766,Part 1 completed,Pics_Only_Dutch,5,,Part 1 completed,Accuracy_level_0.55,57.90000000037253,/task/320041/5/asset/plane.jpg,,,f,image-keyboard-response,20,46122,0.0-1.3-1.7,,,test,,0.049999999999999996,,0.22855
22,1647349697689,15/03/2022 13:08:17,1647349697615,1,15/03/2022 14:08:17,73265,15,task-mxe3,,20402009,BLIND,5973170,Intro Experiment: General explanations,complete,,,computer,Desktop or Laptop,Mac OS 10.15.7,Chrome 99.0.4844.51,1440x900,1440x766,Part 1 completed,Pics_Only_Dutch,5,,Part 1 completed,Accuracy_level_0.55,,"<span style=""color:red;font-size:50px;font-weight: bold;"">FOUT!</span>",,,,html-keyboard-response,21,46330,0.0-1.3-2.7-0.7,,,,,,,
1,1647202954717,13/03/2022 20:22:34,1647202954594,1,13/03/2022 21:22:34,73265,15,task-mxe3,,20348534,BLIND,6028207,Intro Experiment: General explanations,complete,,,computer,Desktop or Laptop,Mac OS 10.15.6,Safari 15.3,820x1180,1180x713,Part 1 completed,Pics_Only_Dutch,5,,Part 1 completed,Accuracy_level_0.55,39893,,,,,instructions,0,39897,0.0-0.0,,,,,,,
2,1647202954827,13/03/2022 20:22:34,1647202954699,1,13/03/2022 21:22:34,73265,15,task-mxe3,,20348534,BLIND,6028207,Intro Experiment: General explanations,complete,,,computer,Desktop or Laptop,Mac OS 10.15.6,Safari 15.3,820x1180,1180x713,Part 1 completed,Pics_Only_Dutch,5,,Part 1 completed,Accuracy_level_0.55,,"<div style=""font-size:60px;"">  </div>",,,,html-keyboard-response,1,40003,0.0-1.0-0.0,,,,,,,
3,1647202956265,13/03/2022 20:22:36,1647202956206,1,13/03/2022 21:22:36,73265,15,task-mxe3,,20348534,BLIND,6028207,Intro Experiment: General explanations,complete,,,computer,Desktop or Laptop,Mac OS 10.15.6,Safari 15.3,820x1180,1180x713,Part 1 completed,Pics_Only_Dutch,5,,Part 1 completed,Accuracy_level_0.55,1323,/task/320041/5/asset/house.jpg,,,f,image-keyboard-response,2,41509,0.0-1.0-1.0,,,test,,-0.175,,0.026866666666666667
4,1647202956399,13/03/2022 20:22:36,1647202956315,1,13/03/2022 21:22:36,73265,15,task-mxe3,,20348534,BLIND,6028207,Intro Experiment: General explanations,complete,,,computer,Desktop or Laptop,Mac OS 10.15.6,Safari 15.3,820x1180,1180x713,Part 1 completed,Pics_Only_Dutch,5,,Part 1 completed,Accuracy_level_0.55,,"<div style=""font-size:60px;"">  </div>",,,,html-keyboard-response,3,41618,0.0-1.0-0.1,,,,,,,
5,1647202957954,13/03/2022 20:22:37,1647202957823,1,13/03/2022 21:22:37,73265,15,task-mxe3,,20348534,BLIND,6028207,Intro Experiment: General explanations,complete,,,computer,Desktop or Laptop,Mac OS 10.15.6,Safari 15.3,820x1180,1180x713,Part 1 completed,Pics_Only_Dutch,5,,Part 1 completed,Accuracy_level_0.55,775.9999999999927,/task/320041/5/asset/comb.jpg,,,j,image-keyboard-response,4,43127,0.0-1.0-1.1,,,test,,-0.7,,0.053816666666666665
6,1647202958050,13/03/2022 20:22:38,1647202957932,1,13/03/2022 21:22:37,73265,15,task-mxe3,,20348534,BLIND,6028207,Intro Experiment: General explanations,complete,,,computer,Desktop or Laptop,Mac OS 10.15.6,Safari 15.3,820x1180,1180x713,Part 1 completed,Pics_Only_Dutch,5,,Part 1 completed,Accuracy_level_0.55,,"<div style=""font-size:60px;"">  </div>",,,,html-keyboard-response,5,43236,0.0-1.1-0.2,,,,,,,
7,1647202959501,13/03/2022 20:22:39,1647202959438,1,13/03/2022 21:22:39,73265,15,task-mxe3,,20348534,BLIND,6028207,Intro Experiment: General explanations,complete,,,computer,Desktop or Laptop,Mac OS 10.15.6,Safari 15.3,820x1180,1180x713,Part 1 completed,Pics_Only_Dutch,5,,Part 1 completed,Accuracy_level_0.55,751,/task/320041/5/asset/glass.jpg,,,j,image-keyboard-response,6,44741,0.0-1.1-1.2,,,test,,,,0.08073333333333334
8,1647202959613,13/03/2022 20:22:39,1647202959546,1,13/03/2022 21:22:39,73265,15,task-mxe3,,20348534,BLIND,6028207,Intro Experiment: General explanations,complete,,,computer,Desktop or Laptop,Mac OS 10.15.6,Safari 15.3,820x1180,1180x713,Part 1 completed,Pics_Only_Dutch,5,,Part 1 completed,Accuracy_level_0.55,,"<div style=""font-size:60px;"">  </div>",,,,html-keyboard-response,7,44849,0.0-1.1-0.3,,,,,,,
9,1647202961111,13/03/2022 20:22:41,1647202961053,1,13/03/2022 21:22:41,73265,15,task-mxe3,,20348534,BLIND,6028207,Intro Experiment: General explanations,complete,,,computer,Desktop or Laptop,Mac OS 10.15.6,Safari 15.3,820x1180,1180x713,Part 1 completed,Pics_Only_Dutch,5,,Part 1 completed,Accuracy_level_0.55,615,/task/320041/5/asset/comb.jpg,,,j,image-keyboard-response,8,46357,0.0-1.1-1.3,,,test,,1.4,,0.10765
10,1647202961225,13/03/2022 20:22:41,1647202961162,1,13/03/2022 21:22:41,73265,15,task-mxe3,,20348534,BLIND,6028207,Intro Experiment: General explanations,complete,,,computer,Desktop or Laptop,Mac OS 10.15.6,Safari 15.3,820x1180,1180x713,Part 1 completed,Pics_Only_Dutch,5,,Part 1 completed,Accuracy_level_0.55,,"<div style=""font-size:60px;"">  </div>",,,,html-keyboard-response,9,46465,0.0-1.2-0.4,,,,,,,
11,1647202962735,13/03/2022 20:22:42,1647202962671,1,13/03/2022 21:22:42,73265,15,task-mxe3,,20348534,BLIND,6028207,Intro Experiment: General explanations,complete,,,computer,Desktop or Laptop,Mac OS 10.15.6,Safari 15.3,820x1180,1180x713,Part 1 completed,Pics_Only_Dutch,5,,Part 1 completed,Accuracy_level_0.55,505,/task/320041/5/asset/house.jpg,,,f,image-keyboard-response,10,47975,0.0-1.2-1.4,,,test,,0.875,,0.13461666666666666
12,1647202962845,13/03/2022 20:22:42,1647202962779,1,13/03/2022 21:22:42,73265,15,task-mxe3,,20348534,BLIND,6028207,Intro Experiment: General explanations,complete,,,computer,Desktop or Laptop,Mac OS 10.15.6,Safari 15.3,820x1180,1180x713,Part 1 completed,Pics_Only_Dutch,5,,Part 1 completed,Accuracy_level_0.55,,"<div style=""font-size:60px;"">  </div>",,,,html-keyboard-response,11,48083,0.0-1.2-0.5,,,,,,,
13,1647202964360,13/03/2022 20:22:44,1647202964288,1,13/03/2022 21:22:44,73265,15,task-mxe3,,20348534,BLIND,6028207,Intro Experiment: General explanations,complete,,,computer,Desktop or Laptop,Mac OS 10.15.6,Safari 15.3,820x1180,1180x713,Part 1 completed,Pics_Only_Dutch,5,,Part 1 completed,Accuracy_level_0.55,428.0000000000073,/task/320041/5/asset/house.jpg,,,f,image-keyboard-response,12,49591,0.0-1.2-1.5,,,test,,0.7000000000000001,,0.16156666666666666
14,1647202964457,13/03/2022 20:22:44,1647202964397,1,13/03/2022 21:22:44,73265,15,task-mxe3,,20348534,BLIND,6028207,Intro Experiment: General explanations,complete,,,computer,Desktop or Laptop,Mac OS 10.15.6,Safari 15.3,820x1180,1180x713,Part 1 completed,Pics_Only_Dutch,5,,Part 1 completed,Accuracy_level_0.55,,"<div style=""font-size:60px;"">  </div>",,,,html-keyboard-response,13,49700,0.0-1.3-0.6,,,,,,,
15,1647202965967,13/03/2022 20:22:45,1647202965905,1,13/03/2022 21:22:45,73265,15,task-mxe3,,20348534,BLIND,6028207,Intro Experiment: General explanations,complete,,,computer,Desktop or Laptop,Mac OS 10.15.6,Safari 15.3,820x1180,1180x713,Part 1 completed,Pics_Only_Dutch,5,,Part 1 completed,Accuracy_level_0.55,905,/task/320041/5/asset/elephant.jpg,,,f,image-keyboard-response,14,51208,0.0-1.3-1.6,,,test,,0.525,,0.1885
16,1647202966238,13/03/2022 20:22:46,1647202966112,1,13/03/2022 21:22:46,73265,15,task-mxe3,,20348534,BLIND,6028207,Intro Experiment: General explanations,complete,,,computer,Desktop or Laptop,Mac OS 10.15.6,Safari 15.3,820x1180,1180x713,Part 1 completed,Pics_Only_Dutch,5,,Part 1 completed,Accuracy_level_0.55,,"<span style=""color:red;font-size:50px;font-weight: bold;"">FOUT!</span>",,,,html-keyboard-response,15,51416,0.0-1.3-2.6-0.6,,,,,,,
17,1647202966342,13/03/2022 20:22:46,1647202966220,1,13/03/2022 21:22:46,73265,15,task-mxe3,,20348534,BLIND,6028207,Intro Experiment: General explanations,complete,,,computer,Desktop or Laptop,Mac OS 10.15.6,Safari 15.3,820x1180,1180x713,Part 1 completed,Pics_Only_Dutch,5,,Part 1 completed,Accuracy_level_0.55,,"<div style=""font-size:60px;"">  </div>",,,,html-keyboard-response,16,51524,0.0-1.3-0.7,,,,,,,
18,1647202967799,13/03/2022 20:22:47,1647202967726,1,13/03/2022 21:22:47,73265,15,task-mxe3,,20348534,BLIND,6028207,Intro Experiment: General explanations,complete,,,computer,Desktop or Laptop,Mac OS 10.15.6,Safari 15.3,820x1180,1180x713,Part 1 completed,Pics_Only_Dutch,5,,Part 1 completed,Accuracy_level_0.55,633,/task/320041/5/asset/elephant.jpg,,,f,image-keyboard-response,17,53029,0.0-1.3-1.7,,,test,,0.4454545454545455,,0.21886666666666665
1,1647172615997,13/03/2022 11:56:55,1647172615353,1,13/03/2022 12:56:55,73265,15,task-mxe3,,20338785,BLIND,6025452,Intro Experiment: General explanations,complete,,,computer,Desktop or Laptop,Chromium OS 14388.61.0,Chrome 98.0.4758.107,1536x864,1536x746,Part 1 completed,Pics_Only_Dutch,5,,Part 1 completed,Accuracy_level_0.55,18297.29999999999,,,,,instructions,0,18303,0.0-0.0,,,,,,,
2,1647172616117,13/03/2022 11:56:56,1647172615471,1,13/03/2022 12:56:55,73265,15,task-mxe3,,20338785,BLIND,6025452,Intro Experiment: General explanations,complete,,,computer,Desktop or Laptop,Chromium OS 14388.61.0,Chrome 98.0.4758.107,1536x864,1536x746,Part 1 completed,Pics_Only_Dutch,5,,Part 1 completed,Accuracy_level_0.55,,"<div style=""font-size:60px;"">  </div>",,,,html-keyboard-response,1,18421,0.0-1.0-0.0,,,,,,,
3,1647172617559,13/03/2022 11:56:57,1647172616974,1,13/03/2022 12:56:56,73265,15,task-mxe3,,20338785,BLIND,6025452,Intro Experiment: General explanations,complete,,,computer,Desktop or Laptop,Chromium OS 14388.61.0,Chrome 98.0.4758.107,1536x864,1536x746,Part 1 completed,Pics_Only_Dutch,5,,Part 1 completed,Accuracy_level_0.55,627.8999999999651,/task/320041/5/asset/house.jpg,,,f,image-keyboard-response,2,19925,0.0-1.0-1.0,,,test,,-0.175,,0.027016666666666668
4,1647172617659,13/03/2022 11:56:57,1647172617078,1,13/03/2022 12:56:57,73265,15,task-mxe3,,20338785,BLIND,6025452,Intro Experiment: General explanations,complete,,,computer,Desktop or Laptop,Chromium OS 14388.61.0,Chrome 98.0.4758.107,1536x864,1536x746,Part 1 completed,Pics_Only_Dutch,5,,Part 1 completed,Accuracy_level_0.55,,"<div style=""font-size:60px;"">  </div>",,,,html-keyboard-response,3,20029,0.0-1.0-0.1,,,,,,,
5,1647172619188,13/03/2022 11:56:59,1647172618588,1,13/03/2022 12:56:58,73265,15,task-mxe3,,20338785,BLIND,6025452,Intro Experiment: General explanations,complete,,,computer,Desktop or Laptop,Chromium OS 14388.61.0,Chrome 98.0.4758.107,1536x864,1536x746,Part 1 completed,Pics_Only_Dutch,5,,Part 1 completed,Accuracy_level_0.55,1360.399999999965,/task/320041/5/asset/elephant.jpg,,,f,image-keyboard-response,4,21531,0.0-1.0-1.1,,,test,,-0.7,,0.05391666666666667
6,1647172619268,13/03/2022 11:56:59,1647172618695,1,13/03/2022 12:56:58,73265,15,task-mxe3,,20338785,BLIND,6025452,Intro Experiment: General explanations,complete,,,computer,Desktop or Laptop,Chromium OS 14388.61.0,Chrome 98.0.4758.107,1536x864,1536x746,Part 1 completed,Pics_Only_Dutch,5,,Part 1 completed,Accuracy_level_0.55,,"<div style=""font-size:60px;"">  </div>",,,,html-keyboard-response,5,21646,0.0-1.1-0.2,,,,,,,
7,1647172620766,13/03/2022 11:57:00,1647172620198,1,13/03/2022 12:57:00,73265,15,task-mxe3,,20338785,BLIND,6025452,Intro Experiment: General explanations,complete,,,computer,Desktop or Laptop,Chromium OS 14388.61.0,Chrome 98.0.4758.107,1536x864,1536x746,Part 1 completed,Pics_Only_Dutch,5,,Part 1 completed,Accuracy_level_0.55,680.9000000000233,/task/320041/5/asset/truck.jpg,,,f,image-keyboard-response,6,23149,0.0-1.1-1.2,,,test,,,,0.08075
8,1647172620909,13/03/2022 11:57:00,1647172620301,1,13/03/2022 12:57:00,73265,15,task-mxe3,,20338785,BLIND,6025452,Intro Experiment: General explanations,complete,,,computer,Desktop or Laptop,Chromium OS 14388.61.0,Chrome 98.0.4758.107,1536x864,1536x746,Part 1 completed,Pics_Only_Dutch,5,,Part 1 completed,Accuracy_level_0.55,,"<div style=""font-size:60px;"">  </div>",,,,html-keyboard-response,7,23252,0.0-1.1-0.3,,,,,,,
9,1647172622362,13/03/2022 11:57:02,1647172621803,1,13/03/2022 12:57:01,73265,15,task-mxe3,,20338785,BLIND,6025452,Intro Experiment: General explanations,complete,,,computer,Desktop or Laptop,Chromium OS 14388.61.0,Chrome 98.0.4758.107,1536x864,1536x746,Part 1 completed,Pics_Only_Dutch,5,,Part 1 completed,Accuracy_level_0.55,,/task/320041/5/asset/key.png,,,j,image-keyboard-response,8,24754,0.0-1.1-1.3,,,test,,1.05,,0.1075
10,1647172622563,13/03/2022 11:57:02,1647172622007,1,13/03/2022 12:57:02,73265,15,task-mxe3,,20338785,BLIND,6025452,Intro Experiment: General explanations,complete,,,computer,Desktop or Laptop,Chromium OS 14388.61.0,Chrome 98.0.4758.107,1536x864,1536x746,Part 1 completed,Pics_Only_Dutch,5,,Part 1 completed,Accuracy_level_0.55,,"<span style=""color:red;font-size:50px;font-weight: bold;"">FOUT!</span>",,,,html-keyboard-response,9,24958,0.0-1.1-2.3-0.3,,,,,,,
11,1647172622692,13/03/2022 11:57:02,1647172622113,1,13/03/2022 12:57:02,73265,15,task-mxe3,,20338785,BLIND,6025452,Intro Experiment: General explanations,complete,,,computer,Desktop or Laptop,Chromium OS 14388.61.0,Chrome 98.0.4758.107,1536x864,1536x746,Part 1 completed,Pics_Only_Dutch,5,,Part 1 completed,Accuracy_level_0.55,,"<div style=""font-size:60px;"">  </div>",,,,html-keyboard-response,10,25064,0.0-1.2-0.4,,,,,,,
12,1647172624176,13/03/2022 11:57:04,1647172623618,1,13/03/2022 12:57:03,73265,15,task-mxe3,,20338785,BLIND,6025452,Intro Experiment: General explanations,complete,,,computer,Desktop or Laptop,Chromium OS 14388.61.0,Chrome 98.0.4758.107,1536x864,1536x746,Part 1 completed,Pics_Only_Dutch,5,,Part 1 completed,Accuracy_level_0.55,668.5,/task/320041/5/asset/elephant.jpg,,,f,image-keyboard-response,11,26569,0.0-1.2-1.4,,,test,,0.5599999999999999,,0.13775
13,1647172624283,13/03/2022 11:57:04,1647172623721,1,13/03/2022 12:57:03,73265,15,task-mxe3,,20338785,BLIND,6025452,Intro Experiment: General explanations,complete,,,computer,Desktop or Laptop,Chromium OS 14388.61.0,Chrome 98.0.4758.107,1536x864,1536x746,Part 1 completed,Pics_Only_Dutch,5,,Part 1 completed,Accuracy_level_0.55,,"<div style=""font-size:60px;"">  </div>",,,,html-keyboard-response,12,26671,0.0-1.2-0.5,,,,,,,
14,1647172625785,13/03/2022 11:57:05,1647172625223,1,13/03/2022 12:57:05,73265,15,task-mxe3,,20338785,BLIND,6025452,Intro Experiment: General explanations,complete,,,computer,Desktop or Laptop,Chromium OS 14388.61.0,Chrome 98.0.4758.107,1536x864,1536x746,Part 1 completed,Pics_Only_Dutch,5,,Part 1 completed,Accuracy_level_0.55,619.2999999999884,/task/320041/5/asset/plane.jpg,,,f,image-keyboard-response,13,28173,0.0-1.2-1.5,,,test,,0.5,,0.1645
15,1647172625912,13/03/2022 11:57:05,1647172625327,1,13/03/2022 12:57:05,73265,15,task-mxe3,,20338785,BLIND,6025452,Intro Experiment: General explanations,complete,,,computer,Desktop or Laptop,Chromium OS 14388.61.0,Chrome 98.0.4758.107,1536x864,1536x746,Part 1 completed,Pics_Only_Dutch,5,,Part 1 completed,Accuracy_level_0.55,,"<div style=""font-size:60px;"">  </div>",,,,html-keyboard-response,14,28278,0.0-1.3-0.6,,,,,,,
16,1647172627393,13/03/2022 11:57:07,1647172626830,1,13/03/2022 12:57:06,73265,15,task-mxe3,,20338785,BLIND,6025452,Intro Experiment: General explanations,complete,,,computer,Desktop or Laptop,Chromium OS 14388.61.0,Chrome 98.0.4758.107,1536x864,1536x746,Part 1 completed,Pics_Only_Dutch,5,,Part 1 completed,Accuracy_level_0.55,460,/task/320041/5/asset/elephant.jpg,,,f,image-keyboard-response,15,29781,0.0-1.3-1.6,,,test,,0.4666666666666667,,0.19128333333333333
17,1647172627496,13/03/2022 11:57:07,1647172626934,1,13/03/2022 12:57:06,73265,15,task-mxe3,,20338785,BLIND,6025452,Intro Experiment: General explanations,complete,,,computer,Desktop or Laptop,Chromium OS 14388.61.0,Chrome 98.0.4758.107,1536x864,1536x746,Part 1 completed,Pics_Only_Dutch,5,,Part 1 completed,Accuracy_level_0.55,,"<div style=""font-size:60px;"">  </div>",,,,html-keyboard-response,16,29885,0.0-1.3-0.7,,,,,,,
18,1647172629021,13/03/2022 11:57:09,1647172628457,1,13/03/2022 12:57:08,73265,15,task-mxe3,,20338785,BLIND,6025452,Intro Experiment: General explanations,complete,,,computer,Desktop or Laptop,Chromium OS 14388.61.0,Chrome 98.0.4758.107,1536x864,1536x746,Part 1 completed,Pics_Only_Dutch,5,,Part 1 completed,Accuracy_level_0.55,,/task/320041/5/asset/key.png,,,j,image-keyboard-response,17,31389,0.0-1.3-1.7,,,test,,0.38181818181818183,,0.2184
19,1647172629216,13/03/2022 11:57:09,1647172628662,1,13/03/2022 12:57:08,73265,15,task-mxe3,,20338785,BLIND,6025452,Intro Experiment: General explanations,complete,,,computer,Desktop or Laptop,Chromium OS 14388.61.0,Chrome 98.0.4758.107,1536x864,1536x746,Part 1 completed,Pics_Only_Dutch,5,,Part 1 completed,Accuracy_level_0.55,,"<span style=""color:red;font-size:50px;font-weight: bold;"">FOUT!</span>",,,,html-keyboard-response,18,31613,0.0-1.3-2.7-0.7,,,,,,,
1,1646843371962,09/03/2022 16:29:31,1646843364517,1,09/03/2022 17:29:24,73265,15,task-mxe3,,20239575,BLIND,5973364,Intro Experiment: General explanations,complete,,,computer,Desktop or Laptop,Windows 10,Firefox 97.0,1708x960,1708x769,Part 1 completed,Pics_Only_Dutch,5,,Part 1 completed,Accuracy_level_0.55,28720,,,,,instructions,0,28728,0.0-0.0,,,,,,,
2,1646843372045,09/03/2022 16:29:32,1646843364624,1,09/03/2022 17:29:24,73265,15,task-mxe3,,20239575,BLIND,5973364,Intro Experiment: General explanations,complete,,,computer,Desktop or Laptop,Windows 10,Firefox 97.0,1708x960,1708x769,Part 1 completed,Pics_Only_Dutch,5,,Part 1 completed,Accuracy_level_0.55,,"<div style=""font-size:60px;"">  </div>",,,,html-keyboard-response,1,28835,0.0-1.0-0.0,,,,,,,
3,1646843373602,09/03/2022 16:29:33,1646843366134,1,09/03/2022 17:29:26,73265,15,task-mxe3,,20239575,BLIND,5973364,Intro Experiment: General explanations,complete,,,computer,Desktop or Laptop,Windows 10,Firefox 97.0,1708x960,1708x769,Part 1 completed,Pics_Only_Dutch,5,,Part 1 completed,Accuracy_level_0.55,1089,/task/320041/5/asset/plane.jpg,,,f,image-keyboard-response,2,30344,0.0-1.0-1.0,,,test,,-0.175,,0.026933333333333333
4,1646843373757,09/03/2022 16:29:33,1646843366242,1,09/03/2022 17:29:26,73265,15,task-mxe3,,20239575,BLIND,5973364,Intro Experiment: General explanations,complete,,,computer,Desktop or Laptop,Windows 10,Firefox 97.0,1708x960,1708x769,Part 1 completed,Pics_Only_Dutch,5,,Part 1 completed,Accuracy_level_0.55,,"<div style=""font-size:60px;"">  </div>",,,,html-keyboard-response,3,30453,0.0-1.0-0.1,,,,,,,
5,1646843375080,09/03/2022 16:29:35,1646843367757,1,09/03/2022 17:29:27,73265,15,task-mxe3,,20239575,BLIND,5973364,Intro Experiment: General explanations,complete,,,computer,Desktop or Laptop,Windows 10,Firefox 97.0,1708x960,1708x769,Part 1 completed,Pics_Only_Dutch,5,,Part 1 completed,Accuracy_level_0.55,624,/task/320041/5/asset/glass.jpg,,,j,image-keyboard-response,4,31968,0.0-1.0-1.1,,,test,,-0.7,,0.054
6,1646843375221,09/03/2022 16:29:35,1646843367874,1,09/03/2022 17:29:27,73265,15,task-mxe3,,20239575,BLIND,5973364,Intro Experiment: General explanations,complete,,,computer,Desktop or Laptop,Windows 10,Firefox 97.0,1708x960,1708x769,Part 1 completed,Pics_Only_Dutch,5,,Part 1 completed,Accuracy_level_0.55,,"<div style=""font-size:60px;"">  </div>",,,,html-keyboard-response,5,32085,0.0-1.1-0.2,,,,,,,
7,1646843376697,09/03/2022 16:29:36,1646843369390,1,09/03/2022 17:29:29,73265,15,task-mxe3,,20239575,BLIND,5973364,Intro Experiment: General explanations,complete,,,computer,Desktop or Laptop,Windows 10,Firefox 97.0,1708x960,1708x769,Part 1 completed,Pics_Only_Dutch,5,,Part 1 completed,Accuracy_level_0.55,903,/task/320041/5/asset/comb.jpg,,,j,image-keyboard-response,6,33601,0.0-1.1-1.2,,,test,,,,0.08121666666666667
8,1646843376793,09/03/2022 16:29:36,1646843369498,1,09/03/2022 17:29:29,73265,15,task-mxe3,,20239575,BLIND,5973364,Intro Experiment: General explanations,complete,,,computer,Desktop or Laptop,Windows 10,Firefox 97.0,1708x960,1708x769,Part 1 completed,Pics_Only_Dutch,5,,Part 1 completed,Accuracy_level_0.55,,"<div style=""font-size:60px;"">  </div>",,,,html-keyboard-response,7,33709,0.0-1.1-0.3,,,,,,,
9,1646843378291,09/03/2022 16:29:38,1646843371001,1,09/03/2022 17:29:31,73265,15,task-mxe3,,20239575,BLIND,5973364,Intro Experiment: General explanations,complete,,,computer,Desktop or Laptop,Windows 10,Firefox 97.0,1708x960,1708x769,Part 1 completed,Pics_Only_Dutch,5,,Part 1 completed,Accuracy_level_0.55,400,/task/320041/5/asset/comb.jpg,,,j,image-keyboard-response,8,35212,0.0-1.1-1.3,,,test,,1.4,,0.10806666666666667
10,1646843378400,09/03/2022 16:29:38,1646843371108,1,09/03/2022 17:29:31,73265,15,task-mxe3,,20239575,BLIND,5973364,Intro Experiment: General explanations,complete,,,computer,Desktop or Laptop,Windows 10,Firefox 97.0,1708x960,1708x769,Part 1 completed,Pics_Only_Dutch,5,,Part 1 completed,Accuracy_level_0.55,,"<div style=""font-size:60px;"">  </div>",,,,html-keyboard-response,9,35319,0.0-1.2-0.4,,,,,,,
11,1646843379891,09/03/2022 16:29:39,1646843372613,1,09/03/2022 17:29:32,73265,15,task-mxe3,,20239575,BLIND,5973364,Intro Experiment: General explanations,complete,,,computer,Desktop or Laptop,Windows 10,Firefox 97.0,1708x960,1708x769,Part 1 completed,Pics_Only_Dutch,5,,Part 1 completed,Accuracy_level_0.55,509,/task/320041/5/asset/glass.jpg,,,j,image-keyboard-response,10,36824,0.0-1.2-1.4,,,test,,0.875,,0.13493333333333332
12,1646843380010,09/03/2022 16:29:40,1646843372721,1,09/03/2022 17:29:32,73265,15,task-mxe3,,20239575,BLIND,5973364,Intro Experiment: General explanations,complete,,,computer,Desktop or Laptop,Windows 10,Firefox 97.0,1708x960,1708x769,Part 1 completed,Pics_Only_Dutch,5,,Part 1 completed,Accuracy_level_0.55,,"<div style=""font-size:60px;"">  </div>",,,,html-keyboard-response,11,36932,0.0-1.2-0.5,,,,,,,
13,1646843381525,09/03/2022 16:29:41,1646843374230,1,09/03/2022 17:29:34,73265,15,task-mxe3,,20239575,BLIND,5973364,Intro Experiment: General explanations,complete,,,computer,Desktop or Laptop,Windows 10,Firefox 97.0,1708x960,1708x769,Part 1 completed,Pics_Only_Dutch,5,,Part 1 completed,Accuracy_level_0.55,607,/task/320041/5/asset/truck.jpg,,,f,image-keyboard-response,12,38441,0.0-1.2-1.5,,,test,,0.7000000000000001,,0.16188333333333332
14,1646843381617,09/03/2022 16:29:41,1646843374337,1,09/03/2022 17:29:34,73265,15,task-mxe3,,20239575,BLIND,5973364,Intro Experiment: General explanations,complete,,,computer,Desktop or Laptop,Windows 10,Firefox 97.0,1708x960,1708x769,Part 1 completed,Pics_Only_Dutch,5,,Part 1 completed,Accuracy_level_0.55,,"<div style=""font-size:60px;"">  </div>",,,,html-keyboard-response,13,38548,0.0-1.3-0.6,,,,,,,
15,1646843383133,09/03/2022 16:29:43,1646843375854,1,09/03/2022 17:29:35,73265,15,task-mxe3,,20239575,BLIND,5973364,Intro Experiment: General explanations,complete,,,computer,Desktop or Laptop,Windows 10,Firefox 97.0,1708x960,1708x769,Part 1 completed,Pics_Only_Dutch,5,,Part 1 completed,Accuracy_level_0.55,,/task/320041/5/asset/key.png,,,j,image-keyboard-response,14,40063,0.0-1.3-1.6,,,test,,0.525,,0.18895
16,1646843383340,09/03/2022 16:29:43,1646843376058,1,09/03/2022 17:29:36,73265,15,task-mxe3,,20239575,BLIND,5973364,Intro Experiment: General explanations,complete,,,computer,Desktop or Laptop,Windows 10,Firefox 97.0,1708x960,1708x769,Part 1 completed,Pics_Only_Dutch,5,,Part 1 completed,Accuracy_level_0.55,,"<span style=""color:red;font-size:50px;font-weight: bold;"">FOUT!</span>",,,,html-keyboard-response,15,40269,0.0-1.3-2.6-0.6,,,,,,,
17,1646843383460,09/03/2022 16:29:43,1646843376168,1,09/03/2022 17:29:36,73265,15,task-mxe3,,20239575,BLIND,5973364,Intro Experiment: General explanations,complete,,,computer,Desktop or Laptop,Windows 10,Firefox 97.0,1708x960,1708x769,Part 1 completed,Pics_Only_Dutch,5,,Part 1 completed,Accuracy_level_0.55,,"<div style=""font-size:60px;"">  </div>",,,,html-keyboard-response,16,40379,0.0-1.3-0.7,,,,,,,
18,1646843385058,09/03/2022 16:29:45,1646843377683,1,09/03/2022 17:29:37,73265,15,task-mxe3,,20239575,BLIND,5973364,Intro Experiment: General explanations,complete,,,computer,Desktop or Laptop,Windows 10,Firefox 97.0,1708x960,1708x769,Part 1 completed,Pics_Only_Dutch,5,,Part 1 completed,Accuracy_level_0.55,734,/task/320041/5/asset/house.jpg,,,f,image-keyboard-response,17,41894,0.0-1.3-1.7,,,test,,0.4454545454545455,,0.21943333333333334
1,1646767759964,08/03/2022 19:29:19,1646767756766,1,08/03/2022 20:29:16,73265,15,task-mxe3,,20206695,BLIND,5974073,Intro Experiment: General explanations,complete,,,computer,Desktop or Laptop,Windows 10,Chrome 99.0.4844.51,1536x864,1506x738,Part 1 completed,Pics_Only_Dutch,5,,Part 1 completed,Accuracy_level_0.55,32175.700000047684,,,,,instructions,0,32185,0.0-0.0,,,,,,,
2,1646767760027,08/03/2022 19:29:20,1646767756882,1,08/03/2022 20:29:16,73265,15,task-mxe3,,20206695,BLIND,5974073,Intro Experiment: General explanations,complete,,,computer,Desktop or Laptop,Windows 10,Chrome 99.0.4844.51,1536x864,1506x738,Part 1 completed,Pics_Only_Dutch,5,,Part 1 completed,Accuracy_level_0.55,,"<div style=""font-size:60px;"">  </div>",,,,html-keyboard-response,1,32301,0.0-1.0-0.0,,,,,,,
3,1646767761528,08/03/2022 19:29:21,1646767758387,1,08/03/2022 20:29:18,73265,15,task-mxe3,,20206695,BLIND,5974073,Intro Experiment: General explanations,complete,,,computer,Desktop or Laptop,Windows 10,Chrome 99.0.4844.51,1536x864,1506x738,Part 1 completed,Pics_Only_Dutch,5,,Part 1 completed,Accuracy_level_0.55,,/task/320041/5/asset/key.png,,,j,image-keyboard-response,2,33805,0.0-1.0-1.0,,,test,,0,,0.027016666666666668
4,1646767761794,08/03/2022 19:29:21,1646767758491,1,08/03/2022 20:29:18,73265,15,task-mxe3,,20206695,BLIND,5974073,Intro Experiment: General explanations,complete,,,computer,Desktop or Laptop,Windows 10,Chrome 99.0.4844.51,1536x864,1506x738,Part 1 completed,Pics_Only_Dutch,5,,Part 1 completed,Accuracy_level_0.55,,"<div style=""font-size:60px;"">  </div>",,,,html-keyboard-response,3,33910,0.0-1.0-0.1,,,,,,,
5,1646767763122,08/03/2022 19:29:23,1646767759993,1,08/03/2022 20:29:19,73265,15,task-mxe3,,20206695,BLIND,5974073,Intro Experiment: General explanations,complete,,,computer,Desktop or Laptop,Windows 10,Chrome 99.0.4844.51,1536x864,1506x738,Part 1 completed,Pics_Only_Dutch,5,,Part 1 completed,Accuracy_level_0.55,1301.1000000238419,/task/320041/5/asset/elephant.jpg,,,f,image-keyboard-response,4,35412,0.0-1.0-1.1,,,test,,-0.35,,0.053783333333333336
6,1646767763341,08/03/2022 19:29:23,1646767760097,1,08/03/2022 20:29:20,73265,15,task-mxe3,,20206695,BLIND,5974073,Intro Experiment: General explanations,complete,,,computer,Desktop or Laptop,Windows 10,Chrome 99.0.4844.51,1536x864,1506x738,Part 1 completed,Pics_Only_Dutch,5,,Part 1 completed,Accuracy_level_0.55,,"<div style=""font-size:60px;"">  </div>",,,,html-keyboard-response,5,35516,0.0-1.1-0.2,,,,,,,
7,1646767764708,08/03/2022 19:29:24,1646767761600,1,08/03/2022 20:29:21,73265,15,task-mxe3,,20206695,BLIND,5974073,Intro Experiment: General explanations,complete,,,computer,Desktop or Laptop,Windows 10,Chrome 99.0.4844.51,1536x864,1506x738,Part 1 completed,Pics_Only_Dutch,5,,Part 1 completed,Accuracy_level_0.55,703.9000000953674,/task/320041/5/asset/elephant.jpg,,,f,image-keyboard-response,6,37019,0.0-1.1-1.2,,,test,,,,0.08056666666666666
8,1646767764864,08/03/2022 19:29:24,1646767761703,1,08/03/2022 20:29:21,73265,15,task-mxe3,,20206695,BLIND,5974073,Intro Experiment: General explanations,complete,,,computer,Desktop or Laptop,Windows 10,Chrome 99.0.4844.51,1536x864,1506x738,Part 1 completed,Pics_Only_Dutch,5,,Part 1 completed,Accuracy_level_0.55,,"<div style=""font-size:60px;"">  </div>",,,,html-keyboard-response,7,37122,0.0-1.1-0.3,,,,,,,
9,1646767766311,08/03/2022 19:29:26,1646767763206,1,08/03/2022 20:29:23,73265,15,task-mxe3,,20206695,BLIND,5974073,Intro Experiment: General explanations,complete,,,computer,Desktop or Laptop,Windows 10,Chrome 99.0.4844.51,1536x864,1506x738,Part 1 completed,Pics_Only_Dutch,5,,Part 1 completed,Accuracy_level_0.55,750.7999999523163,/task/320041/5/asset/plane.jpg,,,f,image-keyboard-response,8,38624,0.0-1.1-1.3,,,test,,1.05,,0.10733333333333334
10,1646767766430,08/03/2022 19:29:26,1646767763309,1,08/03/2022 20:29:23,73265,15,task-mxe3,,20206695,BLIND,5974073,Intro Experiment: General explanations,complete,,,computer,Desktop or Laptop,Windows 10,Chrome 99.0.4844.51,1536x864,1506x738,Part 1 completed,Pics_Only_Dutch,5,,Part 1 completed,Accuracy_level_0.55,,"<div style=""font-size:60px;"">  </div>",,,,html-keyboard-response,9,38728,0.0-1.2-0.4,,,,,,,
11,1646767767951,08/03/2022 19:29:27,1646767764814,1,08/03/2022 20:29:24,73265,15,task-mxe3,,20206695,BLIND,5974073,Intro Experiment: General explanations,complete,,,computer,Desktop or Laptop,Windows 10,Chrome 99.0.4844.51,1536x864,1506x738,Part 1 completed,Pics_Only_Dutch,5,,Part 1 completed,Accuracy_level_0.55,1282.5,/task/320041/5/asset/pear.jpg,,,j,image-keyboard-response,10,40233,0.0-1.2-1.4,,,test,,0.7,,0.13413333333333333
12,1646767768139,08/03/2022 19:29:28,1646767764919,1,08/03/2022 20:29:24,73265,15,task-mxe3,,20206695,BLIND,5974073,Intro Experiment: General explanations,complete,,,computer,Desktop or Laptop,Windows 10,Chrome 99.0.4844.51,1536x864,1506x738,Part 1 completed,Pics_Only_Dutch,5,,Part 1 completed,Accuracy_level_0.55,,"<div style=""font-size:60px;"">  </div>",,,,html-keyboard-response,11,40337,0.0-1.2-0.5,,,,,,,
13,1646767769535,08/03/2022 19:29:29,1646767766421,1,08/03/2022 20:29:26,73265,15,task-mxe3,,20206695,BLIND,5974073,Intro Experiment: General explanations,complete,,,computer,Desktop or Laptop,Windows 10,Chrome 99.0.4844.51,1536x864,1506x738,Part 1 completed,Pics_Only_Dutch,5,,Part 1 completed,Accuracy_level_0.55,464.09999990463257,/task/320041/5/asset/pear.jpg,,,j,image-keyboard-response,12,41840,0.0-1.2-1.5,,,test,,0.5833333333333334,,0.16091666666666668
14,1646767769784,08/03/2022 19:29:29,1646767766525,1,08/03/2022 20:29:26,73265,15,task-mxe3,,20206695,BLIND,5974073,Intro Experiment: General explanations,complete,,,computer,Desktop or Laptop,Windows 10,Chrome 99.0.4844.51,1536x864,1506x738,Part 1 completed,Pics_Only_Dutch,5,,Part 1 completed,Accuracy_level_0.55,,"<div style=""font-size:60px;"">  </div>",,,,html-keyboard-response,13,41944,0.0-1.3-0.6,,,,,,,
15,1646767771164,08/03/2022 19:29:31,1646767768028,1,08/03/2022 20:29:28,73265,15,task-mxe3,,20206695,BLIND,5974073,Intro Experiment: General explanations,complete,,,computer,Desktop or Laptop,Windows 10,Chrome 99.0.4844.51,1536x864,1506x738,Part 1 completed,Pics_Only_Dutch,5,,Part 1 completed,Accuracy_level_0.55,,/task/320041/5/asset/plane.jpg,,,f,image-keyboard-response,14,43447,0.0-1.3-1.6,,,test,,0.4375,,0.1877
16,1646767771346,08/03/2022 19:29:31,1646767768231,1,08/03/2022 20:29:28,73265,15,task-mxe3,,20206695,BLIND,5974073,Intro Experiment: General explanations,complete,,,computer,Desktop or Laptop,Windows 10,Chrome 99.0.4844.51,1536x864,1506x738,Part 1 completed,Pics_Only_Dutch,5,,Part 1 completed,Accuracy_level_0.55,,"<span style=""color:red;font-size:50px;font-weight: bold;"">FOUT!</span>",,,,html-keyboard-response,15,43650,0.0-1.3-2.6-0.6,,,,,,,
17,1646767771524,08/03/2022 19:29:31,1646767768334,1,08/03/2022 20:29:28,73265,15,task-mxe3,,20206695,BLIND,5974073,Intro Experiment: General explanations,complete,,,computer,Desktop or Laptop,Windows 10,Chrome 99.0.4844.51,1536x864,1506x738,Part 1 completed,Pics_Only_Dutch,5,,Part 1 completed,Accuracy_level_0.55,,"<div style=""font-size:60px;"">  </div>",,,,html-keyboard-response,16,43753,0.0-1.3-0.7,,,,,,,
18,1646767772944,08/03/2022 19:29:32,1646767769836,1,08/03/2022 20:29:29,73265,15,task-mxe3,,20206695,BLIND,5974073,Intro Experiment: General explanations,complete,,,computer,Desktop or Laptop,Windows 10,Chrome 99.0.4844.51,1536x864,1506x738,Part 1 completed,Pics_Only_Dutch,5,,Part 1 completed,Accuracy_level_0.55,781.2000000476837,/task/320041/5/asset/pear.jpg,,,j,image-keyboard-response,17,45255,0.0-1.3-1.7,,,test,,0.38181818181818183,,0.21783333333333332
1,1646755936792,08/03/2022 16:12:16,1646755936511,1,08/03/2022 17:12:16,73265,15,task-mxe3,,20197621,BLIND,5973228,Intro Experiment: General explanations,complete,,,computer,Desktop or Laptop,Mac OS 10.15.6,Safari 15.2,820x1180,1180x713,Part 1 completed,Pics_Only_Dutch,5,,Part 1 completed,Accuracy_level_0.55,40249,,,,,instructions,0,40251,0.0-0.0,,,,,,,
2,1646755936874,08/03/2022 16:12:16,1646755936624,1,08/03/2022 17:12:16,73265,15,task-mxe3,,20197621,BLIND,5973228,Intro Experiment: General explanations,complete,,,computer,Desktop or Laptop,Mac OS 10.15.6,Safari 15.2,820x1180,1180x713,Part 1 completed,Pics_Only_Dutch,5,,Part 1 completed,Accuracy_level_0.55,,"<div style=""font-size:60px;"">  </div>",,,,html-keyboard-response,1,40364,0.0-1.0-0.0,,,,,,,
3,1646755938206,08/03/2022 16:12:18,1646755938133,1,08/03/2022 17:12:18,73265,15,task-mxe3,,20197621,BLIND,5973228,Intro Experiment: General explanations,complete,,,computer,Desktop or Laptop,Mac OS 10.15.6,Safari 15.2,820x1180,1180x713,Part 1 completed,Pics_Only_Dutch,5,,Part 1 completed,Accuracy_level_0.55,888,/task/320041/5/asset/truck.jpg,,,f,image-keyboard-response,2,41872,0.0-1.0-1.0,,,test,,-0.175,,0.02705
4,1646755938296,08/03/2022 16:12:18,1646755938241,1,08/03/2022 17:12:18,73265,15,task-mxe3,,20197621,BLIND,5973228,Intro Experiment: General explanations,complete,,,computer,Desktop or Laptop,Mac OS 10.15.6,Safari 15.2,820x1180,1180x713,Part 1 completed,Pics_Only_Dutch,5,,Part 1 completed,Accuracy_level_0.55,,"<div style=""font-size:60px;"">  </div>",,,,html-keyboard-response,3,41982,0.0-1.0-0.1,,,,,,,
5,1646755939803,08/03/2022 16:12:19,1646755939750,1,08/03/2022 17:12:19,73265,15,task-mxe3,,20197621,BLIND,5973228,Intro Experiment: General explanations,complete,,,computer,Desktop or Laptop,Mac OS 10.15.6,Safari 15.2,820x1180,1180x713,Part 1 completed,Pics_Only_Dutch,5,,Part 1 completed,Accuracy_level_0.55,977.0000000000073,/task/320041/5/asset/pear.jpg,,,j,image-keyboard-response,4,43491,0.0-1.0-1.1,,,test,,-0.7,,0.054
6,1646755939915,08/03/2022 16:12:19,1646755939859,1,08/03/2022 17:12:19,73265,15,task-mxe3,,20197621,BLIND,5973228,Intro Experiment: General explanations,complete,,,computer,Desktop or Laptop,Mac OS 10.15.6,Safari 15.2,820x1180,1180x713,Part 1 completed,Pics_Only_Dutch,5,,Part 1 completed,Accuracy_level_0.55,,"<div style=""font-size:60px;"">  </div>",,,,html-keyboard-response,5,43600,0.0-1.1-0.2,,,,,,,
7,1646755941445,08/03/2022 16:12:21,1646755941368,1,08/03/2022 17:12:21,73265,15,task-mxe3,,20197621,BLIND,5973228,Intro Experiment: General explanations,complete,,,computer,Desktop or Laptop,Mac OS 10.15.6,Safari 15.2,820x1180,1180x713,Part 1 completed,Pics_Only_Dutch,5,,Part 1 completed,Accuracy_level_0.55,766,/task/320041/5/asset/glass.jpg,,,j,image-keyboard-response,6,45108,0.0-1.1-1.2,,,test,,,,0.08096666666666667
8,1646755941556,08/03/2022 16:12:21,1646755941476,1,08/03/2022 17:12:21,73265,15,task-mxe3,,20197621,BLIND,5973228,Intro Experiment: General explanations,complete,,,computer,Desktop or Laptop,Mac OS 10.15.6,Safari 15.2,820x1180,1180x713,Part 1 completed,Pics_Only_Dutch,5,,Part 1 completed,Accuracy_level_0.55,,"<div style=""font-size:60px;"">  </div>",,,,html-keyboard-response,7,45217,0.0-1.1-0.3,,,,,,,
9,1646755943055,08/03/2022 16:12:23,1646755942981,1,08/03/2022 17:12:22,73265,15,task-mxe3,,20197621,BLIND,5973228,Intro Experiment: General explanations,complete,,,computer,Desktop or Laptop,Mac OS 10.15.6,Safari 15.2,820x1180,1180x713,Part 1 completed,Pics_Only_Dutch,5,,Part 1 completed,Accuracy_level_0.55,,/task/320041/5/asset/key.png,,,j,image-keyboard-response,8,46722,0.0-1.1-1.3,,,test,,1.05,,0.10785
10,1646755943243,08/03/2022 16:12:23,1646755943190,1,08/03/2022 17:12:23,73265,15,task-mxe3,,20197621,BLIND,5973228,Intro Experiment: General explanations,complete,,,computer,Desktop or Laptop,Mac OS 10.15.6,Safari 15.2,820x1180,1180x713,Part 1 completed,Pics_Only_Dutch,5,,Part 1 completed,Accuracy_level_0.55,,"<span style=""color:red;font-size:50px;font-weight: bold;"">FOUT!</span>",,,,html-keyboard-response,9,46931,0.0-1.1-2.3-0.3,,,,,,,
11,1646755943355,08/03/2022 16:12:23,1646755943298,1,08/03/2022 17:12:23,73265,15,task-mxe3,,20197621,BLIND,5973228,Intro Experiment: General explanations,complete,,,computer,Desktop or Laptop,Mac OS 10.15.6,Safari 15.2,820x1180,1180x713,Part 1 completed,Pics_Only_Dutch,5,,Part 1 completed,Accuracy_level_0.55,,"<div style=""font-size:60px;"">  </div>",,,,html-keyboard-response,10,47039,0.0-1.2-0.4,,,,,,,
12,1646755944868,08/03/2022 16:12:24,1646755944818,1,08/03/2022 17:12:24,73265,15,task-mxe3,,20197621,BLIND,5973228,Intro Experiment: General explanations,complete,,,computer,Desktop or Laptop,Mac OS 10.15.6,Safari 15.2,820x1180,1180x713,Part 1 completed,Pics_Only_Dutch,5,,Part 1 completed,Accuracy_level_0.55,951,/task/320041/5/asset/glass.jpg,,,j,image-keyboard-response,11,48558,0.0-1.2-1.4,,,test,,0.5599999999999999,,0.13846666666666665
13,1646755944980,08/03/2022 16:12:24,1646755944926,1,08/03/2022 17:12:24,73265,15,task-mxe3,,20197621,BLIND,5973228,Intro Experiment: General explanations,complete,,,computer,Desktop or Laptop,Mac OS 10.15.6,Safari 15.2,820x1180,1180x713,Part 1 completed,Pics_Only_Dutch,5,,Part 1 completed,Accuracy_level_0.55,,"<div style=""font-size:60px;"">  </div>",,,,html-keyboard-response,12,48667,0.0-1.2-0.5,,,,,,,
14,1646755946496,08/03/2022 16:12:26,1646755946436,1,08/03/2022 17:12:26,73265,15,task-mxe3,,20197621,BLIND,5973228,Intro Experiment: General explanations,complete,,,computer,Desktop or Laptop,Mac OS 10.15.6,Safari 15.2,820x1180,1180x713,Part 1 completed,Pics_Only_Dutch,5,,Part 1 completed,Accuracy_level_0.55,846,/task/320041/5/asset/comb.jpg,,,j,image-keyboard-response,13,50176,0.0-1.2-1.5,,,test,,0.5,,0.16543333333333332
15,1646755946588,08/03/2022 16:12:26,1646755946545,1,08/03/2022 17:12:26,73265,15,task-mxe3,,20197621,BLIND,5973228,Intro Experiment: General explanations,complete,,,computer,Desktop or Laptop,Mac OS 10.15.6,Safari 15.2,820x1180,1180x713,Part 1 completed,Pics_Only_Dutch,5,,Part 1 completed,Accuracy_level_0.55,,"<div style=""font-size:60px;"">  </div>",,,,html-keyboard-response,14,50286,0.0-1.3-0.6,,,,,,,
16,1646755948109,08/03/2022 16:12:28,1646755948055,1,08/03/2022 17:12:28,73265,15,task-mxe3,,20197621,BLIND,5973228,Intro Experiment: General explanations,complete,,,computer,Desktop or Laptop,Mac OS 10.15.6,Safari 15.2,820x1180,1180x713,Part 1 completed,Pics_Only_Dutch,5,,Part 1 completed,Accuracy_level_0.55,641,/task/320041/5/asset/elephant.jpg,,,f,image-keyboard-response,15,51795,0.0-1.3-1.6,,,test,,0.4666666666666667,,0.19241666666666668
17,1646755948215,08/03/2022 16:12:28,1646755948163,1,08/03/2022 17:12:28,73265,15,task-mxe3,,20197621,BLIND,5973228,Intro Experiment: General explanations,complete,,,computer,Desktop or Laptop,Mac OS 10.15.6,Safari 15.2,820x1180,1180x713,Part 1 completed,Pics_Only_Dutch,5,,Part 1 completed,Accuracy_level_0.55,,"<div style=""font-size:60px;"">  </div>",,,,html-keyboard-response,16,51904,0.0-1.3-0.7,,,,,,,
18,1646755949736,08/03/2022 16:12:29,1646755949671,1,08/03/2022 17:12:29,73265,15,task-mxe3,,20197621,BLIND,5973228,Intro Experiment: General explanations,complete,,,computer,Desktop or Laptop,Mac OS 10.15.6,Safari 15.2,820x1180,1180x713,Part 1 completed,Pics_Only_Dutch,5,,Part 1 completed,Accuracy_level_0.55,1081,/task/320041/5/asset/glass.jpg,,,j,image-keyboard-response,17,53411,0.0-1.3-1.7,,,test,,0.4454545454545455,,0.21935
1,1646735275074,08/03/2022 10:27:55,1646735276753,1,08/03/2022 11:27:56,73265,15,task-mxe3,,20181918,BLIND,5973525,Intro Experiment: General explanations,complete,,,computer,Desktop or Laptop,Windows 10,Chrome 99.0.4844.51,1366x768,1366x625,Part 1 completed,Pics_Only_Dutch,5,,Part 1 completed,Accuracy_level_0.55,14171.700000047684,,,,,instructions,0,14179,0.0-0.0,,,,,,,
2,1646735275164,08/03/2022 10:27:55,1646735276896,1,08/03/2022 11:27:56,73265,15,task-mxe3,,20181918,BLIND,5973525,Intro Experiment: General explanations,complete,,,computer,Desktop or Laptop,Windows 10,Chrome 99.0.4844.51,1366x768,1366x625,Part 1 completed,Pics_Only_Dutch,5,,Part 1 completed,Accuracy_level_0.55,,"<div style=""font-size:60px;"">  </div>",,,,html-keyboard-response,1,14321,0.0-1.0-0.0,,,,,,,
3,1646735276674,08/03/2022 10:27:56,1646735278415,1,08/03/2022 11:27:58,73265,15,task-mxe3,,20181918,BLIND,5973525,Intro Experiment: General explanations,complete,,,computer,Desktop or Laptop,Windows 10,Chrome 99.0.4844.51,1366x768,1366x625,Part 1 completed,Pics_Only_Dutch,5,,Part 1 completed,Accuracy_level_0.55,756.2000000476837,/task/320041/5/asset/glass.jpg,,,j,image-keyboard-response,2,15840,0.0-1.0-1.0,,,test,,-0.175,,0.0277
4,1646735276793,08/03/2022 10:27:56,1646735278522,1,08/03/2022 11:27:58,73265,15,task-mxe3,,20181918,BLIND,5973525,Intro Experiment: General explanations,complete,,,computer,Desktop or Laptop,Windows 10,Chrome 99.0.4844.51,1366x768,1366x625,Part 1 completed,Pics_Only_Dutch,5,,Part 1 completed,Accuracy_level_0.55,,"<div style=""font-size:60px;"">  </div>",,,,html-keyboard-response,3,15948,0.0-1.0-0.1,,,,,,,
5,1646735278303,08/03/2022 10:27:58,1646735280034,1,08/03/2022 11:28:00,73265,15,task-mxe3,,20181918,BLIND,5973525,Intro Experiment: General explanations,complete,,,computer,Desktop or Laptop,Windows 10,Chrome 99.0.4844.51,1366x768,1366x625,Part 1 completed,Pics_Only_Dutch,5,,Part 1 completed,Accuracy_level_0.55,701.8999998569489,/task/320041/5/asset/elephant.jpg,,,f,image-keyboard-response,4,17460,0.0-1.0-1.1,,,test,,-0.7,,0.054683333333333334
6,1646735278397,08/03/2022 10:27:58,1646735280145,1,08/03/2022 11:28:00,73265,15,task-mxe3,,20181918,BLIND,5973525,Intro Experiment: General explanations,complete,,,computer,Desktop or Laptop,Windows 10,Chrome 99.0.4844.51,1366x768,1366x625,Part 1 completed,Pics_Only_Dutch,5,,Part 1 completed,Accuracy_level_0.55,,"<div style=""font-size:60px;"">  </div>",,,,html-keyboard-response,5,17571,0.0-1.1-0.2,,,,,,,
7,1646735279907,08/03/2022 10:27:59,1646735281664,1,08/03/2022 11:28:01,73265,15,task-mxe3,,20181918,BLIND,5973525,Intro Experiment: General explanations,complete,,,computer,Desktop or Laptop,Windows 10,Chrome 99.0.4844.51,1366x768,1366x625,Part 1 completed,Pics_Only_Dutch,5,,Part 1 completed,Accuracy_level_0.55,,/task/320041/5/asset/key.png,,,j,image-keyboard-response,6,19089,0.0-1.1-1.2,,,test,,,,0.08185
8,1646735280140,08/03/2022 10:28:00,1646735281885,1,08/03/2022 11:28:01,73265,15,task-mxe3,,20181918,BLIND,5973525,Intro Experiment: General explanations,complete,,,computer,Desktop or Laptop,Windows 10,Chrome 99.0.4844.51,1366x768,1366x625,Part 1 completed,Pics_Only_Dutch,5,,Part 1 completed,Accuracy_level_0.55,,"<span style=""color:red;font-size:50px;font-weight: bold;"">FOUT!</span>",,,,html-keyboard-response,7,19311,0.0-1.1-2.2-0.2,,,,,,,
9,1646735280245,08/03/2022 10:28:00,1646735281996,1,08/03/2022 11:28:01,73265,15,task-mxe3,,20181918,BLIND,5973525,Intro Experiment: General explanations,complete,,,computer,Desktop or Laptop,Windows 10,Chrome 99.0.4844.51,1366x768,1366x625,Part 1 completed,Pics_Only_Dutch,5,,Part 1 completed,Accuracy_level_0.55,,"<div style=""font-size:60px;"">  </div>",,,,html-keyboard-response,8,19422,0.0-1.1-0.3,,,,,,,
10,1646735281758,08/03/2022 10:28:01,1646735283515,1,08/03/2022 11:28:03,73265,15,task-mxe3,,20181918,BLIND,5973525,Intro Experiment: General explanations,complete,,,computer,Desktop or Laptop,Windows 10,Chrome 99.0.4844.51,1366x768,1366x625,Part 1 completed,Pics_Only_Dutch,5,,Part 1 completed,Accuracy_level_0.55,864,/task/320041/5/asset/pear.jpg,,,j,image-keyboard-response,9,20941,0.0-1.1-1.3,,,test,,0.7000000000000001,,0.1127
11,1646735281879,08/03/2022 10:28:01,1646735283623,1,08/03/2022 11:28:03,73265,15,task-mxe3,,20181918,BLIND,5973525,Intro Experiment: General explanations,complete,,,computer,Desktop or Laptop,Windows 10,Chrome 99.0.4844.51,1366x768,1366x625,Part 1 completed,Pics_Only_Dutch,5,,Part 1 completed,Accuracy_level_0.55,,"<div style=""font-size:60px;"">  </div>",,,,html-keyboard-response,10,21049,0.0-1.2-0.4,,,,,,,
12,1646735283392,08/03/2022 10:28:03,1646735285135,1,08/03/2022 11:28:05,73265,15,task-mxe3,,20181918,BLIND,5973525,Intro Experiment: General explanations,complete,,,computer,Desktop or Laptop,Windows 10,Chrome 99.0.4844.51,1366x768,1366x625,Part 1 completed,Pics_Only_Dutch,5,,Part 1 completed,Accuracy_level_0.55,723.2999999523163,/task/320041/5/asset/comb.jpg,,,j,image-keyboard-response,11,22561,0.0-1.2-1.4,,,test,,0.5599999999999999,,0.1397
