Event Index,UTC Timestamp,UTC Date,Local Timestamp,Local Timezone,Local Date,Experiment ID,Experiment Version,Tree Node Key,Repeat Key,Schedule ID,Participant Public ID,Participant Private ID,Participant Starting Group,Participant Status,Participant Completion Code,Participant External Session ID,Participant Device Type,Participant Device,Participant OS,Participant Browser,Participant Monitor Size,Participant Viewport Size,Checkpoint,Task Name,Task Version,checkpoint-yiku,checkpoint-gn26,randomiser-2vg5,Reaction Time,Stimulus,Key Press,Test Part,Correct Response,Trial Type,Trial Index,Time Elapsed,Internal Node ID,Correct,accuracy_pic_trial,accuracy,trial_dur,match,accuracy_color_trial,prop_correct,minutes,,accuracy_percentage,phase,correct_resp,correct_response
1,1644955099102,15/02/2022 19:58:19,1644955098764,1,15/02/2022 20:58:18,73265,15,task-v1am,,19475958,BLIND,5768964,Intro Experiment: General explanations,complete,,,computer,Desktop or Laptop,Mac OS 10.15.6,Safari 14.0.2,1440x900,1440x900,Part 1 completed,Basic Experiment_Dutch_Acc1,9,Part 1 completed,,Accuracy_level_1,,,,,,fullscreen,0,49960,0.0-0.0,,,,,,,,,,,,,
2,1644955125723,15/02/2022 19:58:45,1644955125663,1,15/02/2022 20:58:45,73265,15,task-v1am,,19475958,BLIND,5768964,Intro Experiment: General explanations,complete,,,computer,Desktop or Laptop,Mac OS 10.15.6,Safari 14.0.2,1440x900,1440x900,Part 1 completed,Basic Experiment_Dutch_Acc1,9,Part 1 completed,,Accuracy_level_1,26896,,,,,instructions,1,76860,0.0-1.0,,,,,,,,,2022-02-15T19:58:45.663Z,[1],test,,
3,1644955127271,15/02/2022 19:58:47,1644955127170,1,15/02/2022 20:58:47,73265,15,task-v1am,,19475958,BLIND,5768964,Intro Experiment: General explanations,complete,,,computer,Desktop or Laptop,Mac OS 10.15.6,Safari 14.0.2,1440x900,1440x900,Part 1 completed,Basic Experiment_Dutch_Acc1,9,Part 1 completed,,Accuracy_level_1,910,/task/320432/9/asset/house.jpg,,,f,image-keyboard-response,2,78366,0.0-2.0-0.0,,1,1,1500,,,0.7,,,,test,,f
4,1644955128750,15/02/2022 19:58:48,1644955128677,1,15/02/2022 20:58:48,73265,15,task-v1am,,19475958,BLIND,5768964,Intro Experiment: General explanations,complete,,,computer,Desktop or Laptop,Mac OS 10.15.6,Safari 14.0.2,1440x900,1440x900,Part 1 completed,Basic Experiment_Dutch_Acc1,9,Part 1 completed,,Accuracy_level_1,,/task/320432/9/asset/white.png,,,,image-keyboard-response,3,79873,0.0-2.0-2.0,,,1,1500,,1,1,0.05023333333333333,,,test,,
5,1644955130250,15/02/2022 19:58:50,1644955130184,1,15/02/2022 20:58:50,73265,15,task-v1am,,19475958,BLIND,5768964,Intro Experiment: General explanations,complete,,,computer,Desktop or Laptop,Mac OS 10.15.6,Safari 14.0.2,1440x900,1440x900,Part 1 completed,Basic Experiment_Dutch_Acc1,9,Part 1 completed,,Accuracy_level_1,1050,/task/320432/9/asset/truck.jpg,,,f,image-keyboard-response,4,81380,0.0-2.0-0.1,,1,1,1500,,,0.9,,,,test,,f
6,1644955131744,15/02/2022 19:58:51,1644955131691,1,15/02/2022 20:58:51,73265,15,task-v1am,,19475958,BLIND,5768964,Intro Experiment: General explanations,complete,,,computer,Desktop or Laptop,Mac OS 10.15.6,Safari 14.0.2,1440x900,1440x900,Part 1 completed,Basic Experiment_Dutch_Acc1,9,Part 1 completed,,Accuracy_level_1,,/task/320432/9/asset/blue.png,,,,image-keyboard-response,5,82887,0.0-2.0-2.1,,,1,1500,,1,1,0.10046666666666666,,,test,,
7,1644955133280,15/02/2022 19:58:53,1644955133197,1,15/02/2022 20:58:53,73265,15,task-v1am,,19475958,BLIND,5768964,Intro Experiment: General explanations,complete,,,computer,Desktop or Laptop,Mac OS 10.15.6,Safari 14.0.2,1440x900,1440x900,Part 1 completed,Basic Experiment_Dutch_Acc1,9,Part 1 completed,,Accuracy_level_1,810,/task/320432/9/asset/key.jpg,,,j,image-keyboard-response,6,84394,0.0-2.0-0.2,,1,1,1500,,,0.9400000000000001,,,,test,,j
8,1644955134797,15/02/2022 19:58:54,1644955134735,1,15/02/2022 20:58:54,73265,15,task-v1am,,19475958,BLIND,5768964,Intro Experiment: General explanations,complete,,,computer,Desktop or Laptop,Mac OS 10.15.6,Safari 14.0.2,1440x900,1440x900,Part 1 completed,Basic Experiment_Dutch_Acc1,9,Part 1 completed,,Accuracy_level_1,740,/task/320432/9/asset/blue.png,,, ,image-keyboard-response,7,85932,0.0-2.0-2.2,,,1,1530,1,1,1,0.1512,,,test,, 
9,1644955136373,15/02/2022 19:58:56,1644955136273,1,15/02/2022 20:58:56,73265,15,task-v1am,,19475958,BLIND,5768964,Intro Experiment: General explanations,complete,,,computer,Desktop or Laptop,Mac OS 10.15.6,Safari 14.0.2,1440x900,1440x900,Part 1 completed,Basic Experiment_Dutch_Acc1,9,Part 1 completed,,Accuracy_level_1,580,/task/320432/9/asset/house.jpg,,,f,image-keyboard-response,8,87469,0.0-2.0-0.3,,1,1,1530,,,0.9571428571428571,,,,test,,f
10,1644955137897,15/02/2022 19:58:57,1644955137840,1,15/02/2022 20:58:57,73265,15,task-v1am,,19475958,BLIND,5768964,Intro Experiment: General explanations,complete,,,computer,Desktop or Laptop,Mac OS 10.15.6,Safari 14.0.2,1440x900,1440x900,Part 1 completed,Basic Experiment_Dutch_Acc1,9,Part 1 completed,,Accuracy_level_1,,/task/320432/9/asset/green.png,,,,image-keyboard-response,9,89036,0.0-2.0-2.3,,,1,1560,,1,1,0.20295,,,test,,
11,1644955139467,15/02/2022 19:58:59,1644955139406,1,15/02/2022 20:58:59,73265,15,task-v1am,,19475958,BLIND,5768964,Intro Experiment: General explanations,complete,,,computer,Desktop or Laptop,Mac OS 10.15.6,Safari 14.0.2,1440x900,1440x900,Part 1 completed,Basic Experiment_Dutch_Acc1,9,Part 1 completed,,Accuracy_level_1,744,/task/320432/9/asset/glass.jpg,,,j,image-keyboard-response,10,90603,0.0-2.0-0.4,,1,1,1560,,,0.9666666666666666,,,,test,,j
12,1644955141064,15/02/2022 19:59:01,1644955141003,1,15/02/2022 20:59:01,73265,15,task-v1am,,19475958,BLIND,5768964,Intro Experiment: General explanations,complete,,,computer,Desktop or Laptop,Mac OS 10.15.6,Safari 14.0.2,1440x900,1440x900,Part 1 completed,Basic Experiment_Dutch_Acc1,9,Part 1 completed,,Accuracy_level_1,,/task/320432/9/asset/black.png,,,,image-keyboard-response,11,92199,0.0-2.0-2.4,,,1,1590,,1,1,0.25566666666666665,,,test,,
13,1644955142657,15/02/2022 19:59:02,1644955142601,1,15/02/2022 20:59:02,73265,15,task-v1am,,19475958,BLIND,5768964,Intro Experiment: General explanations,complete,,,computer,Desktop or Laptop,Mac OS 10.15.6,Safari 14.0.2,1440x900,1440x900,Part 1 completed,Basic Experiment_Dutch_Acc1,9,Part 1 completed,,Accuracy_level_1,615,/task/320432/9/asset/key.jpg,,,j,image-keyboard-response,12,93797,0.0-2.0-0.5,,1,1,1590,,,0.9727272727272727,,,,test,,j
14,1644955144290,15/02/2022 19:59:04,1644955144229,1,15/02/2022 20:59:04,73265,15,task-v1am,,19475958,BLIND,5768964,Intro Experiment: General explanations,complete,,,computer,Desktop or Laptop,Mac OS 10.15.6,Safari 14.0.2,1440x900,1440x900,Part 1 completed,Basic Experiment_Dutch_Acc1,9,Part 1 completed,,Accuracy_level_1,693,/task/320432/9/asset/black.png,,, ,image-keyboard-response,13,95426,0.0-2.0-2.5,,,1,1620,1,1,1,0.30943333333333334,,,test,, 
15,1644955145931,15/02/2022 19:59:05,1644955145862,1,15/02/2022 20:59:05,73265,15,task-v1am,,19475958,BLIND,5768964,Intro Experiment: General explanations,complete,,,computer,Desktop or Laptop,Mac OS 10.15.6,Safari 14.0.2,1440x900,1440x900,Part 1 completed,Basic Experiment_Dutch_Acc1,9,Part 1 completed,,Accuracy_level_1,572,/task/320432/9/asset/house.jpg,,,f,image-keyboard-response,14,97058,0.0-2.0-0.6,,1,1,1620,,,0.9769230769230769,,,,test,,f
16,1644955147590,15/02/2022 19:59:07,1644955147520,1,15/02/2022 20:59:07,73265,15,task-v1am,,19475958,BLIND,5768964,Intro Experiment: General explanations,complete,,,computer,Desktop or Laptop,Mac OS 10.15.6,Safari 14.0.2,1440x900,1440x900,Part 1 completed,Basic Experiment_Dutch_Acc1,9,Part 1 completed,,Accuracy_level_1,599,/task/320432/9/asset/black.png,,, ,image-keyboard-response,15,98716,0.0-2.0-2.6,,,1,1650,1,1,1,0.36428333333333335,,,test,, 
17,1644955149232,15/02/2022 19:59:09,1644955149177,1,15/02/2022 20:59:09,73265,15,task-v1am,,19475958,BLIND,5768964,Intro Experiment: General explanations,complete,,,computer,Desktop or Laptop,Mac OS 10.15.6,Safari 14.0.2,1440x900,1440x900,Part 1 completed,Basic Experiment_Dutch_Acc1,9,Part 1 completed,,Accuracy_level_1,866,/task/320432/9/asset/plane.jpg,,,f,image-keyboard-response,16,100374,0.0-2.0-0.7,,1,1,1650,,,0.98,,,,test,,f
18,1644955150924,15/02/2022 19:59:10,1644955150863,1,15/02/2022 20:59:10,73265,15,task-v1am,,19475958,BLIND,5768964,Intro Experiment: General explanations,complete,,,computer,Desktop or Laptop,Mac OS 10.15.6,Safari 14.0.2,1440x900,1440x900,Part 1 completed,Basic Experiment_Dutch_Acc1,9,Part 1 completed,,Accuracy_level_1,,/task/320432/9/asset/yellow.png,,,,image-keyboard-response,17,102060,0.0-2.0-2.7,,,1,1680,,1,1,0.42,,,test,,
19,1644955152626,15/02/2022 19:59:12,1644955152551,1,15/02/2022 20:59:12,73265,15,task-v1am,,19475958,BLIND,5768964,Intro Experiment: General explanations,complete,,,computer,Desktop or Laptop,Mac OS 10.15.6,Safari 14.0.2,1440x900,1440x900,Part 1 completed,Basic Experiment_Dutch_Acc1,9,Part 1 completed,,Accuracy_level_1,953,/task/320432/9/asset/elephant.jpg,,,f,image-keyboard-response,18,103747,0.0-2.1-0.8,,1,1,1680,,,0.9823529411764708,,,,test,,f
20,1644955154337,15/02/2022 19:59:14,1644955154268,1,15/02/2022 20:59:14,73265,15,task-v1am,,19475958,BLIND,5768964,Intro Experiment: General explanations,complete,,,computer,Desktop or Laptop,Mac OS 10.15.6,Safari 14.0.2,1440x900,1440x900,Part 1 completed,Basic Experiment_Dutch_Acc1,9,Part 1 completed,,Accuracy_level_1,,/task/320432/9/asset/purple.png,,,,image-keyboard-response,19,105464,0.0-2.1-2.8,,,1,1710,,1,1,0.47675,,,test,,
21,1644955156058,15/02/2022 19:59:16,1644955155985,1,15/02/2022 20:59:15,73265,15,task-v1am,,19475958,BLIND,5768964,Intro Experiment: General explanations,complete,,,computer,Desktop or Laptop,Mac OS 10.15.6,Safari 14.0.2,1440x900,1440x900,Part 1 completed,Basic Experiment_Dutch_Acc1,9,Part 1 completed,,Accuracy_level_1,630,/task/320432/9/asset/key.jpg,,,j,image-keyboard-response,20,107181,0.0-2.1-0.9,,1,1,1710,,,0.9842105263157894,,,,test,,j
22,1644955157797,15/02/2022 19:59:17,1644955157733,1,15/02/2022 20:59:17,73265,15,task-v1am,,19475958,BLIND,5768964,Intro Experiment: General explanations,complete,,,computer,Desktop or Laptop,Mac OS 10.15.6,Safari 14.0.2,1440x900,1440x900,Part 1 completed,Basic Experiment_Dutch_Acc1,9,Part 1 completed,,Accuracy_level_1,1090,/task/320432/9/asset/purple.png,,, ,image-keyboard-response,21,108930,0.0-2.1-2.9,,,1,1740,1,1,1,0.5345,,,test,, 
23,1644955159536,15/02/2022 19:59:19,1644955159481,1,15/02/2022 20:59:19,73265,15,task-v1am,,19475958,BLIND,5768964,Intro Experiment: General explanations,complete,,,computer,Desktop or Laptop,Mac OS 10.15.6,Safari 14.0.2,1440x900,1440x900,Part 1 completed,Basic Experiment_Dutch_Acc1,9,Part 1 completed,,Accuracy_level_1,1139,/task/320432/9/asset/truck.jpg,,,f,image-keyboard-response,22,110678,0.0-2.1-0.10,,1,1,1740,,,0.9857142857142857,,,,test,,f
24,1644955161336,15/02/2022 19:59:21,1644955161259,1,15/02/2022 20:59:21,73265,15,task-v1am,,19475958,BLIND,5768964,Intro Experiment: General explanations,complete,,,computer,Desktop or Laptop,Mac OS 10.15.6,Safari 14.0.2,1440x900,1440x900,Part 1 completed,Basic Experiment_Dutch_Acc1,9,Part 1 completed,,Accuracy_level_1,676,/task/320432/9/asset/purple.png,,, ,image-keyboard-response,23,112455,0.0-2.1-2.10,,,1,1770,1,1,1,0.5932666666666667,,,test,, 
25,1644955163168,15/02/2022 19:59:23,1644955163036,1,15/02/2022 20:59:23,73265,15,task-v1am,,19475958,BLIND,5768964,Intro Experiment: General explanations,complete,,,computer,Desktop or Laptop,Mac OS 10.15.6,Safari 14.0.2,1440x900,1440x900,Part 1 completed,Basic Experiment_Dutch_Acc1,9,Part 1 completed,,Accuracy_level_1,645,/task/320432/9/asset/plane.jpg,,,f,image-keyboard-response,24,114233,0.0-2.1-0.11,,1,1,1770,,,0.9869565217391305,,,,test,,f
26,1644955164906,15/02/2022 19:59:24,1644955164842,1,15/02/2022 20:59:24,73265,15,task-v1am,,19475958,BLIND,5768964,Intro Experiment: General explanations,complete,,,computer,Desktop or Laptop,Mac OS 10.15.6,Safari 14.0.2,1440x900,1440x900,Part 1 completed,Basic Experiment_Dutch_Acc1,9,Part 1 completed,,Accuracy_level_1,,/task/320432/9/asset/green.png,,,,image-keyboard-response,25,116038,0.0-2.1-2.11,,,1,1800,,1,1,0.6529833333333334,,,test,,
27,1644955166710,15/02/2022 19:59:26,1644955166647,1,15/02/2022 20:59:26,73265,15,task-v1am,,19475958,BLIND,5768964,Intro Experiment: General explanations,complete,,,computer,Desktop or Laptop,Mac OS 10.15.6,Safari 14.0.2,1440x900,1440x900,Part 1 completed,Basic Experiment_Dutch_Acc1,9,Part 1 completed,,Accuracy_level_1,508,/task/320432/9/asset/plane.jpg,,,f,image-keyboard-response,26,117844,0.0-2.1-0.12,,1,1,1800,,,0.988,,,,test,,f
28,1644955168570,15/02/2022 19:59:28,1644955168486,1,15/02/2022 20:59:28,73265,15,task-v1am,,19475958,BLIND,5768964,Intro Experiment: General explanations,complete,,,computer,Desktop or Laptop,Mac OS 10.15.6,Safari 14.0.2,1440x900,1440x900,Part 1 completed,Basic Experiment_Dutch_Acc1,9,Part 1 completed,,Accuracy_level_1,934,/task/320432/9/asset/green.png,,, ,image-keyboard-response,27,119682,0.0-2.1-2.12,,,1,1830,1,1,1,0.7137166666666667,,,test,, 
29,1644955170386,15/02/2022 19:59:30,1644955170324,1,15/02/2022 20:59:30,73265,15,task-v1am,,19475958,BLIND,5768964,Intro Experiment: General explanations,complete,,,computer,Desktop or Laptop,Mac OS 10.15.6,Safari 14.0.2,1440x900,1440x900,Part 1 completed,Basic Experiment_Dutch_Acc1,9,Part 1 completed,,Accuracy_level_1,563,/task/320432/9/asset/house.jpg,,,f,image-keyboard-response,28,121520,0.0-2.1-0.13,,1,1,1830,,,0.9888888888888888,,,,test,,f
30,1644955172251,15/02/2022 19:59:32,1644955172192,1,15/02/2022 20:59:32,73265,15,task-v1am,,19475958,BLIND,5768964,Intro Experiment: General explanations,complete,,,computer,Desktop or Laptop,Mac OS 10.15.6,Safari 14.0.2,1440x900,1440x900,Part 1 completed,Basic Experiment_Dutch_Acc1,9,Part 1 completed,,Accuracy_level_1,,/task/320432/9/asset/white.png,,,,image-keyboard-response,29,123389,0.0-2.1-2.13,,,1,1860,,1,1,0.7754833333333333,,,test,,
31,1644955174110,15/02/2022 19:59:34,1644955174059,1,15/02/2022 20:59:34,73265,15,task-v1am,,19475958,BLIND,5768964,Intro Experiment: General explanations,complete,,,computer,Desktop or Laptop,Mac OS 10.15.6,Safari 14.0.2,1440x900,1440x900,Part 1 completed,Basic Experiment_Dutch_Acc1,9,Part 1 completed,,Accuracy_level_1,582.0000000000146,/task/320432/9/asset/truck.jpg,,,f,image-keyboard-response,30,125256,0.0-2.1-0.14,,1,1,1860,,,0.9896551724137931,,,,test,,f
32,1644955176020,15/02/2022 19:59:36,1644955175954,1,15/02/2022 20:59:35,73265,15,task-v1am,,19475958,BLIND,5768964,Intro Experiment: General explanations,complete,,,computer,Desktop or Laptop,Mac OS 10.15.6,Safari 14.0.2,1440x900,1440x900,Part 1 completed,Basic Experiment_Dutch_Acc1,9,Part 1 completed,,Accuracy_level_1,497,/task/320432/9/asset/white.png,,, ,image-keyboard-response,31,127150,0.0-2.1-2.14,,,1,1890,1,1,1,0.8381833333333333,,,test,, 
33,1644955177905,15/02/2022 19:59:37,1644955177850,1,15/02/2022 20:59:37,73265,15,task-v1am,,19475958,BLIND,5768964,Intro Experiment: General explanations,complete,,,computer,Desktop or Laptop,Mac OS 10.15.6,Safari 14.0.2,1440x900,1440x900,Part 1 completed,Basic Experiment_Dutch_Acc1,9,Part 1 completed,,Accuracy_level_1,724.9999999999854,/task/320432/9/asset/comb.jpg,,,j,image-keyboard-response,32,129046,0.0-2.1-0.15,,1,1,1890,,,0.9903225806451613,,,,test,,j
34,1644955179842,15/02/2022 19:59:39,1644955179777,1,15/02/2022 20:59:39,73265,15,task-v1am,,19475958,BLIND,5768964,Intro Experiment: General explanations,complete,,,computer,Desktop or Laptop,Mac OS 10.15.6,Safari 14.0.2,1440x900,1440x900,Part 1 completed,Basic Experiment_Dutch_Acc1,9,Part 1 completed,,Accuracy_level_1,751.9999999999854,/task/320432/9/asset/white.png,,, ,image-keyboard-response,33,130973,0.0-2.1-2.15,,,1,1920,1,1,1,0.9019,,,test,, 
35,1644955181765,15/02/2022 19:59:41,1644955181704,1,15/02/2022 20:59:41,73265,15,task-v1am,,19475958,BLIND,5768964,Intro Experiment: General explanations,complete,,,computer,Desktop or Laptop,Mac OS 10.15.6,Safari 14.0.2,1440x900,1440x900,Part 1 completed,Basic Experiment_Dutch_Acc1,9,Part 1 completed,,Accuracy_level_1,739,/task/320432/9/asset/truck.jpg,,,f,image-keyboard-response,34,132900,0.0-2.2-0.16,,1,1,1920,,,0.990909090909091,,,,test,,f
36,1644955183725,15/02/2022 19:59:43,1644955183660,1,15/02/2022 20:59:43,73265,15,task-v1am,,19475958,BLIND,5768964,Intro Experiment: General explanations,complete,,,computer,Desktop or Laptop,Mac OS 10.15.6,Safari 14.0.2,1440x900,1440x900,Part 1 completed,Basic Experiment_Dutch_Acc1,9,Part 1 completed,,Accuracy_level_1,553,/task/320432/9/asset/white.png,,, ,image-keyboard-response,35,134857,0.0-2.2-2.16,,,1,1950,1,1,1,0.9666166666666667,,,test,, 
37,1644955185670,15/02/2022 19:59:45,1644955185616,1,15/02/2022 20:59:45,73265,15,task-v1am,,19475958,BLIND,5768964,Intro Experiment: General explanations,complete,,,computer,Desktop or Laptop,Mac OS 10.15.6,Safari 14.0.2,1440x900,1440x900,Part 1 completed,Basic Experiment_Dutch_Acc1,9,Part 1 completed,,Accuracy_level_1,703.0000000000291,/task/320432/9/asset/pear.jpg,,,j,image-keyboard-response,36,136813,0.0-2.2-0.17,,1,1,1950,,,0.9914285714285715,,,,test,,j
38,1644955187673,15/02/2022 19:59:47,1644955187603,1,15/02/2022 20:59:47,73265,15,task-v1am,,19475958,BLIND,5768964,Intro Experiment: General explanations,complete,,,computer,Desktop or Laptop,Mac OS 10.15.6,Safari 14.0.2,1440x900,1440x900,Part 1 completed,Basic Experiment_Dutch_Acc1,9,Part 1 completed,,Accuracy_level_1,,/task/320432/9/asset/black.png,,,,image-keyboard-response,37,138800,0.0-2.2-2.17,,,1,1980,,1,1,1.0323333333333333,,,test,,
39,1644955189666,15/02/2022 19:59:49,1644955189592,1,15/02/2022 20:59:49,73265,15,task-v1am,,19475958,BLIND,5768964,Intro Experiment: General explanations,complete,,,computer,Desktop or Laptop,Mac OS 10.15.6,Safari 14.0.2,1440x900,1440x900,Part 1 completed,Basic Experiment_Dutch_Acc1,9,Part 1 completed,,Accuracy_level_1,548,/task/320432/9/asset/glass.jpg,,,j,image-keyboard-response,38,140787,0.0-2.2-0.18,,1,1,1980,,,0.991891891891892,,,,test,,j
40,1644955191672,15/02/2022 19:59:51,1644955191608,1,15/02/2022 20:59:51,73265,15,task-v1am,,19475958,BLIND,5768964,Intro Experiment: General explanations,complete,,,computer,Desktop or Laptop,Mac OS 10.15.6,Safari 14.0.2,1440x900,1440x900,Part 1 completed,Basic Experiment_Dutch_Acc1,9,Part 1 completed,,Accuracy_level_1,,/task/320432/9/asset/green.png,,,,image-keyboard-response,39,142805,0.0-2.2-2.18,,,1,2010,,1,1,1.0990833333333334,,,test,,
41,1644955193677,15/02/2022 19:59:53,1644955193624,1,15/02/2022 20:59:53,73265,15,task-v1am,,19475958,BLIND,5768964,Intro Experiment: General explanations,complete,,,computer,Desktop or Laptop,Mac OS 10.15.6,Safari 14.0.2,1440x900,1440x900,Part 1 completed,Basic Experiment_Dutch_Acc1,9,Part 1 completed,,Accuracy_level_1,557,/task/320432/9/asset/comb.jpg,,,j,image-keyboard-response,40,144820,0.0-2.2-0.19,,1,1,2010,,,0.9923076923076923,,,,test,,j
42,1644955195739,15/02/2022 19:59:55,1644955195670,1,15/02/2022 20:59:55,73265,15,task-v1am,,19475958,BLIND,5768964,Intro Experiment: General explanations,complete,,,computer,Desktop or Laptop,Mac OS 10.15.6,Safari 14.0.2,1440x900,1440x900,Part 1 completed,Basic Experiment_Dutch_Acc1,9,Part 1 completed,,Accuracy_level_1,1386,/task/320432/9/asset/green.png,,, ,image-keyboard-response,41,146867,0.0-2.2-2.19,,,1,2040,1,1,1,1.1667833333333333,,,test,, 
43,1644955197779,15/02/2022 19:59:57,1644955197721,1,15/02/2022 20:59:57,73265,15,task-v1am,,19475958,BLIND,5768964,Intro Experiment: General explanations,complete,,,computer,Desktop or Laptop,Mac OS 10.15.6,Safari 14.0.2,1440x900,1440x900,Part 1 completed,Basic Experiment_Dutch_Acc1,9,Part 1 completed,,Accuracy_level_1,658.0000000000291,/task/320432/9/asset/comb.jpg,,,j,image-keyboard-response,42,148918,0.0-2.2-0.20,,1,1,2040,,,0.9926829268292684,,,,test,,j
44,1644955199852,15/02/2022 19:59:59,1644955199798,1,15/02/2022 20:59:59,73265,15,task-v1am,,19475958,BLIND,5768964,Intro Experiment: General explanations,complete,,,computer,Desktop or Laptop,Mac OS 10.15.6,Safari 14.0.2,1440x900,1440x900,Part 1 completed,Basic Experiment_Dutch_Acc1,9,Part 1 completed,,Accuracy_level_1,679,/task/320432/9/asset/green.png,,, ,image-keyboard-response,43,150995,0.0-2.2-2.20,,,1,2070,1,1,1,1.2355833333333333,,,test,, 
45,1644955201947,15/02/2022 20:00:01,1644955201875,1,15/02/2022 21:00:01,73265,15,task-v1am,,19475958,BLIND,5768964,Intro Experiment: General explanations,complete,,,computer,Desktop or Laptop,Mac OS 10.15.6,Safari 14.0.2,1440x900,1440x900,Part 1 completed,Basic Experiment_Dutch_Acc1,9,Part 1 completed,,Accuracy_level_1,540.0000000000291,/task/320432/9/asset/plane.jpg,,,f,image-keyboard-response,44,153071,0.0-2.2-0.21,,1,1,2070,,,0.9930232558139536,,,,test,,f
46,1644955204042,15/02/2022 20:00:04,1644955203982,1,15/02/2022 21:00:03,73265,15,task-v1am,,19475958,BLIND,5768964,Intro Experiment: General explanations,complete,,,computer,Desktop or Laptop,Mac OS 10.15.6,Safari 14.0.2,1440x900,1440x900,Part 1 completed,Basic Experiment_Dutch_Acc1,9,Part 1 completed,,Accuracy_level_1,532,/task/320432/9/asset/green.png,,, ,image-keyboard-response,45,155178,0.0-2.2-2.21,,,1,2100,1,1,1,1.3053166666666667,,,test,, 
47,1644955206160,15/02/2022 20:00:06,1644955206089,1,15/02/2022 21:00:06,73265,15,task-v1am,,19475958,BLIND,5768964,Intro Experiment: General explanations,complete,,,computer,Desktop or Laptop,Mac OS 10.15.6,Safari 14.0.2,1440x900,1440x900,Part 1 completed,Basic Experiment_Dutch_Acc1,9,Part 1 completed,,Accuracy_level_1,510,/task/320432/9/asset/comb.jpg,,,j,image-keyboard-response,46,157285,0.0-2.2-0.22,,1,1,2100,,,0.9933333333333334,,,,test,,j
48,1644955208277,15/02/2022 20:00:08,1644955208226,1,15/02/2022 21:00:08,73265,15,task-v1am,,19475958,BLIND,5768964,Intro Experiment: General explanations,complete,,,computer,Desktop or Laptop,Mac OS 10.15.6,Safari 14.0.2,1440x900,1440x900,Part 1 completed,Basic Experiment_Dutch_Acc1,9,Part 1 completed,,Accuracy_level_1,,/task/320432/9/asset/white.png,,,,image-keyboard-response,47,159423,0.0-2.2-2.22,,,1,2130,,1,1,1.37605,,,test,,
49,1644955210417,15/02/2022 20:00:10,1644955210364,1,15/02/2022 21:00:10,73265,15,task-v1am,,19475958,BLIND,5768964,Intro Experiment: General explanations,complete,,,computer,Desktop or Laptop,Mac OS 10.15.6,Safari 14.0.2,1440x900,1440x900,Part 1 completed,Basic Experiment_Dutch_Acc1,9,Part 1 completed,,Accuracy_level_1,583,/task/320432/9/asset/comb.jpg,,,j,image-keyboard-response,48,161560,0.0-2.2-0.23,,1,1,2130,,,0.9936170212765958,,,,test,,j
50,1644955212599,15/02/2022 20:00:12,1644955212533,1,15/02/2022 21:00:12,73265,15,task-v1am,,19475958,BLIND,5768964,Intro Experiment: General explanations,complete,,,computer,Desktop or Laptop,Mac OS 10.15.6,Safari 14.0.2,1440x900,1440x900,Part 1 completed,Basic Experiment_Dutch_Acc1,9,Part 1 completed,,Accuracy_level_1,476,/task/320432/9/asset/white.png,,, ,image-keyboard-response,49,163729,0.0-2.2-2.23,,,1,2160,1,1,1,1.4478333333333333,,,test,, 
51,1644955214758,15/02/2022 20:00:14,1644955214703,1,15/02/2022 21:00:14,73265,15,task-v1am,,19475958,BLIND,5768964,Intro Experiment: General explanations,complete,,,computer,Desktop or Laptop,Mac OS 10.15.6,Safari 14.0.2,1440x900,1440x900,Part 1 completed,Basic Experiment_Dutch_Acc1,9,Part 1 completed,,Accuracy_level_1,651,/task/320432/9/asset/pear.jpg,,,j,image-keyboard-response,50,165897,0.0-2.3-0.24,,1,1,2160,,,0.9938775510204082,,,,test,,j
52,1644955216965,15/02/2022 20:00:16,1644955216900,1,15/02/2022 21:00:16,73265,15,task-v1am,,19475958,BLIND,5768964,Intro Experiment: General explanations,complete,,,computer,Desktop or Laptop,Mac OS 10.15.6,Safari 14.0.2,1440x900,1440x900,Part 1 completed,Basic Experiment_Dutch_Acc1,9,Part 1 completed,,Accuracy_level_1,803,/task/320432/9/asset/white.png,,, ,image-keyboard-response,51,168096,0.0-2.3-2.24,,,1,2190,1,1,1,1.5206166666666667,,,test,, 
53,1644955219164,15/02/2022 20:00:19,1644955219097,1,15/02/2022 21:00:19,73265,15,task-v1am,,19475958,BLIND,5768964,Intro Experiment: General explanations,complete,,,computer,Desktop or Laptop,Mac OS 10.15.6,Safari 14.0.2,1440x900,1440x900,Part 1 completed,Basic Experiment_Dutch_Acc1,9,Part 1 completed,,Accuracy_level_1,789,/task/320432/9/asset/glass.jpg,,,j,image-keyboard-response,52,170293,0.0-2.3-0.25,,1,1,2190,,,0.9941176470588236,,,,test,,j
54,1644955221388,15/02/2022 20:00:21,1644955221324,1,15/02/2022 21:00:21,73265,15,task-v1am,,19475958,BLIND,5768964,Intro Experiment: General explanations,complete,,,computer,Desktop or Laptop,Mac OS 10.15.6,Safari 14.0.2,1440x900,1440x900,Part 1 completed,Basic Experiment_Dutch_Acc1,9,Part 1 completed,,Accuracy_level_1,677,/task/320432/9/asset/white.png,,, ,image-keyboard-response,53,172520,0.0-2.3-2.25,,,1,2220,1,1,1,1.59435,,,test,, 
55,1644955223611,15/02/2022 20:00:23,1644955223551,1,15/02/2022 21:00:23,73265,15,task-v1am,,19475958,BLIND,5768964,Intro Experiment: General explanations,complete,,,computer,Desktop or Laptop,Mac OS 10.15.6,Safari 14.0.2,1440x900,1440x900,Part 1 completed,Basic Experiment_Dutch_Acc1,9,Part 1 completed,,Accuracy_level_1,647,/task/320432/9/asset/pear.jpg,,,j,image-keyboard-response,54,174747,0.0-2.3-0.26,,1,1,2220,,,0.9943396226415093,,,,test,,j
56,1644955225912,15/02/2022 20:00:25,1644955225808,1,15/02/2022 21:00:25,73265,15,task-v1am,,19475958,BLIND,5768964,Intro Experiment: General explanations,complete,,,computer,Desktop or Laptop,Mac OS 10.15.6,Safari 14.0.2,1440x900,1440x900,Part 1 completed,Basic Experiment_Dutch_Acc1,9,Part 1 completed,,Accuracy_level_1,,/task/320432/9/asset/blue.png,,,,image-keyboard-response,55,177005,0.0-2.3-2.26,,,1,2250,,1,1,1.6690833333333333,,,test,,
57,1644955228130,15/02/2022 20:00:28,1644955228067,1,15/02/2022 21:00:28,73265,15,task-v1am,,19475958,BLIND,5768964,Intro Experiment: General explanations,complete,,,computer,Desktop or Laptop,Mac OS 10.15.6,Safari 14.0.2,1440x900,1440x900,Part 1 completed,Basic Experiment_Dutch_Acc1,9,Part 1 completed,,Accuracy_level_1,610,/task/320432/9/asset/truck.jpg,,,f,image-keyboard-response,56,179262,0.0-2.3-0.27,,1,1,2250,,,0.9945454545454546,,,,test,,f
58,1644955230415,15/02/2022 20:00:30,1644955230354,1,15/02/2022 21:00:30,73265,15,task-v1am,,19475958,BLIND,5768964,Intro Experiment: General explanations,complete,,,computer,Desktop or Laptop,Mac OS 10.15.6,Safari 14.0.2,1440x900,1440x900,Part 1 completed,Basic Experiment_Dutch_Acc1,9,Part 1 completed,,Accuracy_level_1,1011,/task/320432/9/asset/blue.png,,, ,image-keyboard-response,57,181550,0.0-2.3-2.27,,,1,2280,1,1,1,1.74485,,,test,, 
59,1644955232697,15/02/2022 20:00:32,1644955232643,1,15/02/2022 21:00:32,73265,15,task-v1am,,19475958,BLIND,5768964,Intro Experiment: General explanations,complete,,,computer,Desktop or Laptop,Mac OS 10.15.6,Safari 14.0.2,1440x900,1440x900,Part 1 completed,Basic Experiment_Dutch_Acc1,9,Part 1 completed,,Accuracy_level_1,662.9999999999709,/task/320432/9/asset/key.jpg,,,j,image-keyboard-response,58,183839,0.0-2.3-0.28,,1,1,2280,,,0.9947368421052633,,,,test,,j
60,1644955235029,15/02/2022 20:00:35,1644955234959,1,15/02/2022 21:00:34,73265,15,task-v1am,,19475958,BLIND,5768964,Intro Experiment: General explanations,complete,,,computer,Desktop or Laptop,Mac OS 10.15.6,Safari 14.0.2,1440x900,1440x900,Part 1 completed,Basic Experiment_Dutch_Acc1,9,Part 1 completed,,Accuracy_level_1,1709,/task/320432/9/asset/blue.png,,, ,image-keyboard-response,59,186156,0.0-2.3-2.28,,,1,2310,1,1,1,1.8216,,,test,, 
61,1644955237341,15/02/2022 20:00:37,1644955237276,1,15/02/2022 21:00:37,73265,15,task-v1am,,19475958,BLIND,5768964,Intro Experiment: General explanations,complete,,,computer,Desktop or Laptop,Mac OS 10.15.6,Safari 14.0.2,1440x900,1440x900,Part 1 completed,Basic Experiment_Dutch_Acc1,9,Part 1 completed,,Accuracy_level_1,593,/task/320432/9/asset/comb.jpg,,,j,image-keyboard-response,60,188472,0.0-2.3-0.29,,1,1,2310,,,0.9949152542372882,,,,test,,j
62,1644955239682,15/02/2022 20:00:39,1644955239624,1,15/02/2022 21:00:39,73265,15,task-v1am,,19475958,BLIND,5768964,Intro Experiment: General explanations,complete,,,computer,Desktop or Laptop,Mac OS 10.15.6,Safari 14.0.2,1440x900,1440x900,Part 1 completed,Basic Experiment_Dutch_Acc1,9,Part 1 completed,,Accuracy_level_1,587.9999999999709,/task/320432/9/asset/blue.png,,, ,image-keyboard-response,61,190821,0.0-2.3-2.29,,,1,2340,1,1,1,1.89935,,,test,, 
63,1644955242059,15/02/2022 20:00:42,1644955241971,1,15/02/2022 21:00:41,73265,15,task-v1am,,19475958,BLIND,5768964,Intro Experiment: General explanations,complete,,,computer,Desktop or Laptop,Mac OS 10.15.6,Safari 14.0.2,1440x900,1440x900,Part 1 completed,Basic Experiment_Dutch_Acc1,9,Part 1 completed,,Accuracy_level_1,630.0000000000291,/task/320432/9/asset/glass.jpg,,,j,image-keyboard-response,62,193167,0.0-2.3-0.30,,1,1,2340,,,0.9950819672131148,,,,test,,j
64,1644955244419,15/02/2022 20:00:44,1644955244347,1,15/02/2022 21:00:44,73265,15,task-v1am,,19475958,BLIND,5768964,Intro Experiment: General explanations,complete,,,computer,Desktop or Laptop,Mac OS 10.15.6,Safari 14.0.2,1440x900,1440x900,Part 1 completed,Basic Experiment_Dutch_Acc1,9,Part 1 completed,,Accuracy_level_1,523,/task/320432/9/asset/blue.png,,, ,image-keyboard-response,63,195543,0.0-2.3-2.30,,,1,2370,1,1,1,1.9780666666666666,,,test,, 
65,1644955246799,15/02/2022 20:00:46,1644955246724,1,15/02/2022 21:00:46,73265,15,task-v1am,,19475958,BLIND,5768964,Intro Experiment: General explanations,complete,,,computer,Desktop or Laptop,Mac OS 10.15.6,Safari 14.0.2,1440x900,1440x900,Part 1 completed,Basic Experiment_Dutch_Acc1,9,Part 1 completed,,Accuracy_level_1,758.0000000000291,/task/320432/9/asset/elephant.jpg,,,f,image-keyboard-response,64,197921,0.0-2.3-0.31,,1,1,2370,,,0.9952380952380951,,,,test,,f
66,1644955249176,15/02/2022 20:00:49,1644955249130,1,15/02/2022 21:00:49,73265,15,task-v1am,,19475958,BLIND,5768964,Intro Experiment: General explanations,complete,,,computer,Desktop or Laptop,Mac OS 10.15.6,Safari 14.0.2,1440x900,1440x900,Part 1 completed,Basic Experiment_Dutch_Acc1,9,Part 1 completed,,Accuracy_level_1,,/task/320432/9/asset/black.png,,,,image-keyboard-response,65,200327,0.0-2.3-2.31,,,1,2400,,1,1,2.0577833333333335,,,test,,
67,1644955251612,15/02/2022 20:00:51,1644955251542,1,15/02/2022 21:00:51,73265,15,task-v1am,,19475958,BLIND,5768964,Intro Experiment: General explanations,complete,,,computer,Desktop or Laptop,Mac OS 10.15.6,Safari 14.0.2,1440x900,1440x900,Part 1 completed,Basic Experiment_Dutch_Acc1,9,Part 1 completed,,Accuracy_level_1,647.0000000000291,/task/320432/9/asset/glass.jpg,,,j,image-keyboard-response,66,202734,0.0-2.4-0.32,,1,1,2400,,,0.9953846153846154,,,,test,,j
68,1644955254040,15/02/2022 20:00:54,1644955253979,1,15/02/2022 21:00:53,73265,15,task-v1am,,19475958,BLIND,5768964,Intro Experiment: General explanations,complete,,,computer,Desktop or Laptop,Mac OS 10.15.6,Safari 14.0.2,1440x900,1440x900,Part 1 completed,Basic Experiment_Dutch_Acc1,9,Part 1 completed,,Accuracy_level_1,556,/task/320432/9/asset/black.png,,, ,image-keyboard-response,67,205175,0.0-2.4-2.32,,,1,2430,1,1,1,2.1386,,,test,, 
69,1644955256478,15/02/2022 20:00:56,1644955256417,1,15/02/2022 21:00:56,73265,15,task-v1am,,19475958,BLIND,5768964,Intro Experiment: General explanations,complete,,,computer,Desktop or Laptop,Mac OS 10.15.6,Safari 14.0.2,1440x900,1440x900,Part 1 completed,Basic Experiment_Dutch_Acc1,9,Part 1 completed,,Accuracy_level_1,670.9999999999709,/task/320432/9/asset/pear.jpg,,,j,image-keyboard-response,68,207614,0.0-2.4-0.33,,1,1,2430,,,0.9955223880597015,,,,test,,j
70,1644955258951,15/02/2022 20:00:58,1644955258884,1,15/02/2022 21:00:58,73265,15,task-v1am,,19475958,BLIND,5768964,Intro Experiment: General explanations,complete,,,computer,Desktop or Laptop,Mac OS 10.15.6,Safari 14.0.2,1440x900,1440x900,Part 1 completed,Basic Experiment_Dutch_Acc1,9,Part 1 completed,,Accuracy_level_1,851,/task/320432/9/asset/black.png,,, ,image-keyboard-response,69,210081,0.0-2.4-2.33,,,1,2460,1,1,1,2.22035,,,test,, 
71,1644955261414,15/02/2022 20:01:01,1644955261352,1,15/02/2022 21:01:01,73265,15,task-v1am,,19475958,BLIND,5768964,Intro Experiment: General explanations,complete,,,computer,Desktop or Laptop,Mac OS 10.15.6,Safari 14.0.2,1440x900,1440x900,Part 1 completed,Basic Experiment_Dutch_Acc1,9,Part 1 completed,,Accuracy_level_1,1117.999999999971,/task/320432/9/asset/pear.jpg,,,j,image-keyboard-response,70,212548,0.0-2.4-0.34,,1,1,2460,,,0.9956521739130435,,,,test,,j
72,1644955263893,15/02/2022 20:01:03,1644955263849,1,15/02/2022 21:01:03,73265,15,task-v1am,,19475958,BLIND,5768964,Intro Experiment: General explanations,complete,,,computer,Desktop or Laptop,Mac OS 10.15.6,Safari 14.0.2,1440x900,1440x900,Part 1 completed,Basic Experiment_Dutch_Acc1,9,Part 1 completed,,Accuracy_level_1,863,/task/320432/9/asset/black.png,,, ,image-keyboard-response,71,215045,0.0-2.4-2.34,,,1,2490,1,1,1,2.3031,,,test,, 
73,1644955266408,15/02/2022 20:01:06,1644955266346,1,15/02/2022 21:01:06,73265,15,task-v1am,,19475958,BLIND,5768964,Intro Experiment: General explanations,complete,,,computer,Desktop or Laptop,Mac OS 10.15.6,Safari 14.0.2,1440x900,1440x900,Part 1 completed,Basic Experiment_Dutch_Acc1,9,Part 1 completed,,Accuracy_level_1,604.9999999999709,/task/320432/9/asset/comb.jpg,,,j,image-keyboard-response,72,217542,0.0-2.4-0.35,,1,1,2490,,,0.995774647887324,,,,test,,j
74,1644955268928,15/02/2022 20:01:08,1644955268873,1,15/02/2022 21:01:08,73265,15,task-v1am,,19475958,BLIND,5768964,Intro Experiment: General explanations,complete,,,computer,Desktop or Laptop,Mac OS 10.15.6,Safari 14.0.2,1440x900,1440x900,Part 1 completed,Basic Experiment_Dutch_Acc1,9,Part 1 completed,,Accuracy_level_1,658,/task/320432/9/asset/black.png,,, ,image-keyboard-response,73,220070,0.0-2.4-2.35,,,1,2520,1,1,1,2.386833333333333,,,test,, 
75,1644955271450,15/02/2022 20:01:11,1644955271400,1,15/02/2022 21:01:11,73265,15,task-v1am,,19475958,BLIND,5768964,Intro Experiment: General explanations,complete,,,computer,Desktop or Laptop,Mac OS 10.15.6,Safari 14.0.2,1440x900,1440x900,Part 1 completed,Basic Experiment_Dutch_Acc1,9,Part 1 completed,,Accuracy_level_1,671,/task/320432/9/asset/house.jpg,,,f,image-keyboard-response,74,222597,0.0-2.4-0.36,,1,1,2520,,,0.995890410958904,,,,test,,f
76,1644955274028,15/02/2022 20:01:14,1644955273958,1,15/02/2022 21:01:13,73265,15,task-v1am,,19475958,BLIND,5768964,Intro Experiment: General explanations,complete,,,computer,Desktop or Laptop,Mac OS 10.15.6,Safari 14.0.2,1440x900,1440x900,Part 1 completed,Basic Experiment_Dutch_Acc1,9,Part 1 completed,,Accuracy_level_1,,/task/320432/9/asset/green.png,,,,image-keyboard-response,75,225155,0.0-2.4-2.36,,,1,2550,,1,1,2.4715833333333332,,,test,,
77,1644955276567,15/02/2022 20:01:16,1644955276517,1,15/02/2022 21:01:16,73265,15,task-v1am,,19475958,BLIND,5768964,Intro Experiment: General explanations,complete,,,computer,Desktop or Laptop,Mac OS 10.15.6,Safari 14.0.2,1440x900,1440x900,Part 1 completed,Basic Experiment_Dutch_Acc1,9,Part 1 completed,,Accuracy_level_1,670,/task/320432/9/asset/comb.jpg,,,j,image-keyboard-response,76,227713,0.0-2.4-0.37,,1,1,2550,,,0.996,,,,test,,j
78,1644955279163,15/02/2022 20:01:19,1644955279104,1,15/02/2022 21:01:19,73265,15,task-v1am,,19475958,BLIND,5768964,Intro Experiment: General explanations,complete,,,computer,Desktop or Laptop,Mac OS 10.15.6,Safari 14.0.2,1440x900,1440x900,Part 1 completed,Basic Experiment_Dutch_Acc1,9,Part 1 completed,,Accuracy_level_1,1054,/task/320432/9/asset/green.png,,, ,image-keyboard-response,77,230301,0.0-2.4-2.37,,,1,2580,1,1,1,2.55735,,,test,, 
79,1644955281759,15/02/2022 20:01:21,1644955281695,1,15/02/2022 21:01:21,73265,15,task-v1am,,19475958,BLIND,5768964,Intro Experiment: General explanations,complete,,,computer,Desktop or Laptop,Mac OS 10.15.6,Safari 14.0.2,1440x900,1440x900,Part 1 completed,Basic Experiment_Dutch_Acc1,9,Part 1 completed,,Accuracy_level_1,634.9999999999709,/task/320432/9/asset/elephant.jpg,,,f,image-keyboard-response,78,232887,0.0-2.4-0.38,,1,1,2580,,,0.9961038961038962,,,,test,,f
80,1644955284376,15/02/2022 20:01:24,1644955284310,1,15/02/2022 21:01:24,73265,15,task-v1am,,19475958,BLIND,5768964,Intro Experiment: General explanations,complete,,,computer,Desktop or Laptop,Mac OS 10.15.6,Safari 14.0.2,1440x900,1440x900,Part 1 completed,Basic Experiment_Dutch_Acc1,9,Part 1 completed,,Accuracy_level_1,,/task/320432/9/asset/red.png,,,,image-keyboard-response,79,235507,0.0-2.4-2.38,,,1,2610,,1,1,2.6441166666666667,,,test,,
81,1644955286995,15/02/2022 20:01:26,1644955286932,1,15/02/2022 21:01:26,73265,15,task-v1am,,19475958,BLIND,5768964,Intro Experiment: General explanations,complete,,,computer,Desktop or Laptop,Mac OS 10.15.6,Safari 14.0.2,1440x900,1440x900,Part 1 completed,Basic Experiment_Dutch_Acc1,9,Part 1 completed,,Accuracy_level_1,628,/task/320432/9/asset/truck.jpg,,,f,image-keyboard-response,80,238128,0.0-2.4-0.39,,1,1,2610,,,0.9962025316455697,,,,test,,f
82,1644955289645,15/02/2022 20:01:29,1644955289579,1,15/02/2022 21:01:29,73265,15,task-v1am,,19475958,BLIND,5768964,Intro Experiment: General explanations,complete,,,computer,Desktop or Laptop,Mac OS 10.15.6,Safari 14.0.2,1440x900,1440x900,Part 1 completed,Basic Experiment_Dutch_Acc1,9,Part 1 completed,,Accuracy_level_1,619,/task/320432/9/asset/red.png,,, ,image-keyboard-response,81,240775,0.0-2.4-2.39,,,1,2640,1,1,1,2.7319333333333335,,,test,, 
83,1644955292290,15/02/2022 20:01:32,1644955292226,1,15/02/2022 21:01:32,73265,15,task-v1am,,19475958,BLIND,5768964,Intro Experiment: General explanations,complete,,,computer,Desktop or Laptop,Mac OS 10.15.6,Safari 14.0.2,1440x900,1440x900,Part 1 completed,Basic Experiment_Dutch_Acc1,9,Part 1 completed,,Accuracy_level_1,635,/task/320432/9/asset/key.jpg,,,j,image-keyboard-response,82,243423,0.0-2.5-0.40,,1,1,2640,,,0.9962962962962963,,,,test,,j
84,1644955294963,15/02/2022 20:01:34,1644955294903,1,15/02/2022 21:01:34,73265,15,task-v1am,,19475958,BLIND,5768964,Intro Experiment: General explanations,complete,,,computer,Desktop or Laptop,Mac OS 10.15.6,Safari 14.0.2,1440x900,1440x900,Part 1 completed,Basic Experiment_Dutch_Acc1,9,Part 1 completed,,Accuracy_level_1,1077,/task/320432/9/asset/red.png,,, ,image-keyboard-response,83,246100,0.0-2.5-2.40,,,1,2670,1,1,1,2.820666666666667,,,test,, 
85,1644955297640,15/02/2022 20:01:37,1644955297581,1,15/02/2022 21:01:37,73265,15,task-v1am,,19475958,BLIND,5768964,Intro Experiment: General explanations,complete,,,computer,Desktop or Laptop,Mac OS 10.15.6,Safari 14.0.2,1440x900,1440x900,Part 1 completed,Basic Experiment_Dutch_Acc1,9,Part 1 completed,,Accuracy_level_1,816,/task/320432/9/asset/plane.jpg,,,f,image-keyboard-response,84,248777,0.0-2.5-0.41,,1,1,2670,,,0.9963855421686746,,,,test,,f
86,1644955300357,15/02/2022 20:01:40,1644955300290,1,15/02/2022 21:01:40,73265,15,task-v1am,,19475958,BLIND,5768964,Intro Experiment: General explanations,complete,,,computer,Desktop or Laptop,Mac OS 10.15.6,Safari 14.0.2,1440x900,1440x900,Part 1 completed,Basic Experiment_Dutch_Acc1,9,Part 1 completed,,Accuracy_level_1,888,/task/320432/9/asset/red.png,,, ,image-keyboard-response,85,251484,0.0-2.5-2.41,,,1,2700,1,1,1,2.91045,,,test,, 
87,1644955303047,15/02/2022 20:01:43,1644955302996,1,15/02/2022 21:01:42,73265,15,task-v1am,,19475958,BLIND,5768964,Intro Experiment: General explanations,complete,,,computer,Desktop or Laptop,Mac OS 10.15.6,Safari 14.0.2,1440x900,1440x900,Part 1 completed,Basic Experiment_Dutch_Acc1,9,Part 1 completed,,Accuracy_level_1,631,/task/320432/9/asset/truck.jpg,,,f,image-keyboard-response,86,254192,0.0-2.5-0.42,,1,1,2700,,,0.9964705882352941,,,,test,,f
88,1644955305789,15/02/2022 20:01:45,1644955305737,1,15/02/2022 21:01:45,73265,15,task-v1am,,19475958,BLIND,5768964,Intro Experiment: General explanations,complete,,,computer,Desktop or Laptop,Mac OS 10.15.6,Safari 14.0.2,1440x900,1440x900,Part 1 completed,Basic Experiment_Dutch_Acc1,9,Part 1 completed,,Accuracy_level_1,,/task/320432/9/asset/blue.png,,,,image-keyboard-response,87,256934,0.0-2.5-2.42,,,1,2730,,1,1,3.0012333333333334,,,test,,
89,1644955308544,15/02/2022 20:01:48,1644955308474,1,15/02/2022 21:01:48,73265,15,task-v1am,,19475958,BLIND,5768964,Intro Experiment: General explanations,complete,,,computer,Desktop or Laptop,Mac OS 10.15.6,Safari 14.0.2,1440x900,1440x900,Part 1 completed,Basic Experiment_Dutch_Acc1,9,Part 1 completed,,Accuracy_level_1,941.0000000000291,/task/320432/9/asset/elephant.jpg,,,f,image-keyboard-response,88,259671,0.0-2.5-0.43,,1,1,2730,,,0.996551724137931,,,,test,,f
90,1644955311296,15/02/2022 20:01:51,1644955311241,1,15/02/2022 21:01:51,73265,15,task-v1am,,19475958,BLIND,5768964,Intro Experiment: General explanations,complete,,,computer,Desktop or Laptop,Mac OS 10.15.6,Safari 14.0.2,1440x900,1440x900,Part 1 completed,Basic Experiment_Dutch_Acc1,9,Part 1 completed,,Accuracy_level_1,786.9999999999709,/task/320432/9/asset/blue.png,,, ,image-keyboard-response,89,262438,0.0-2.5-2.43,,,1,2760,1,1,1,3.092966666666667,,,test,, 
91,1644955314062,15/02/2022 20:01:54,1644955314008,1,15/02/2022 21:01:54,73265,15,task-v1am,,19475958,BLIND,5768964,Intro Experiment: General explanations,complete,,,computer,Desktop or Laptop,Mac OS 10.15.6,Safari 14.0.2,1440x900,1440x900,Part 1 completed,Basic Experiment_Dutch_Acc1,9,Part 1 completed,,Accuracy_level_1,567,/task/320432/9/asset/comb.jpg,,,j,image-keyboard-response,90,265205,0.0-2.5-0.44,,1,1,2760,,,0.9966292134831461,,,,test,,j
92,1644955316859,15/02/2022 20:01:56,1644955316805,1,15/02/2022 21:01:56,73265,15,task-v1am,,19475958,BLIND,5768964,Intro Experiment: General explanations,complete,,,computer,Desktop or Laptop,Mac OS 10.15.6,Safari 14.0.2,1440x900,1440x900,Part 1 completed,Basic Experiment_Dutch_Acc1,9,Part 1 completed,,Accuracy_level_1,1171,/task/320432/9/asset/blue.png,,, ,image-keyboard-response,91,268002,0.0-2.5-2.44,,,1,2790,1,1,1,3.1857,,,test,, 
93,1644955319661,15/02/2022 20:01:59,1644955319602,1,15/02/2022 21:01:59,73265,15,task-v1am,,19475958,BLIND,5768964,Intro Experiment: General explanations,complete,,,computer,Desktop or Laptop,Mac OS 10.15.6,Safari 14.0.2,1440x900,1440x900,Part 1 completed,Basic Experiment_Dutch_Acc1,9,Part 1 completed,,Accuracy_level_1,638,/task/320432/9/asset/comb.jpg,,,j,image-keyboard-response,92,270799,0.0-2.5-0.45,,1,1,2790,,,0.9967032967032967,,,,test,,j
94,1644955322485,15/02/2022 20:02:02,1644955322430,1,15/02/2022 21:02:02,73265,15,task-v1am,,19475958,BLIND,5768964,Intro Experiment: General explanations,complete,,,computer,Desktop or Laptop,Mac OS 10.15.6,Safari 14.0.2,1440x900,1440x900,Part 1 completed,Basic Experiment_Dutch_Acc1,9,Part 1 completed,,Accuracy_level_1,,/task/320432/9/asset/purple.png,,,,image-keyboard-response,93,273627,0.0-2.5-2.45,,,1,2820,,1,1,3.27945,,,test,,
95,1644955325331,15/02/2022 20:02:05,1644955325257,1,15/02/2022 21:02:05,73265,15,task-v1am,,19475958,BLIND,5768964,Intro Experiment: General explanations,complete,,,computer,Desktop or Laptop,Mac OS 10.15.6,Safari 14.0.2,1440x900,1440x900,Part 1 completed,Basic Experiment_Dutch_Acc1,9,Part 1 completed,,Accuracy_level_1,646,/task/320432/9/asset/comb.jpg,,,j,image-keyboard-response,94,276454,0.0-2.5-0.46,,1,1,2820,,,0.9967741935483869,,,,test,,j
96,1644955328173,15/02/2022 20:02:08,1644955328117,1,15/02/2022 21:02:08,73265,15,task-v1am,,19475958,BLIND,5768964,Intro Experiment: General explanations,complete,,,computer,Desktop or Laptop,Mac OS 10.15.6,Safari 14.0.2,1440x900,1440x900,Part 1 completed,Basic Experiment_Dutch_Acc1,9,Part 1 completed,,Accuracy_level_1,899,/task/320432/9/asset/purple.png,,, ,image-keyboard-response,95,279313,0.0-2.5-2.46,,,1,2850,1,1,1,3.374216666666667,,,test,, 
97,1644955331027,15/02/2022 20:02:11,1644955330977,1,15/02/2022 21:02:10,73265,15,task-v1am,,19475958,BLIND,5768964,Intro Experiment: General explanations,complete,,,computer,Desktop or Laptop,Mac OS 10.15.6,Safari 14.0.2,1440x900,1440x900,Part 1 completed,Basic Experiment_Dutch_Acc1,9,Part 1 completed,,Accuracy_level_1,595,/task/320432/9/asset/comb.jpg,,,j,image-keyboard-response,96,282170,0.0-2.5-0.47,,1,1,2850,,,0.996842105263158,,,,test,,j
98,1644955333921,15/02/2022 20:02:13,1644955333864,1,15/02/2022 21:02:13,73265,15,task-v1am,,19475958,BLIND,5768964,Intro Experiment: General explanations,complete,,,computer,Desktop or Laptop,Mac OS 10.15.6,Safari 14.0.2,1440x900,1440x900,Part 1 completed,Basic Experiment_Dutch_Acc1,9,Part 1 completed,,Accuracy_level_1,,/task/320432/9/asset/white.png,,,,image-keyboard-response,97,285061,0.0-2.5-2.47,,,1,2880,,1,1,3.4700166666666665,,,test,,
99,1644955337036,15/02/2022 20:02:17,1644955336752,1,15/02/2022 21:02:16,73265,15,task-v1am,,19475958,BLIND,5768964,Intro Experiment: General explanations,complete,,,computer,Desktop or Laptop,Mac OS 10.15.6,Safari 14.0.2,1440x900,1440x900,Part 1 completed,Basic Experiment_Dutch_Acc1,9,Part 1 completed,,Accuracy_level_1,591,/task/320432/9/asset/comb.jpg,,,j,image-keyboard-response,98,287948,0.0-2.6-0.48,,1,1,2880,,,0.9969072164948453,,,,test,,j
100,1644955339731,15/02/2022 20:02:19,1644955339669,1,15/02/2022 21:02:19,73265,15,task-v1am,,19475958,BLIND,5768964,Intro Experiment: General explanations,complete,,,computer,Desktop or Laptop,Mac OS 10.15.6,Safari 14.0.2,1440x900,1440x900,Part 1 completed,Basic Experiment_Dutch_Acc1,9,Part 1 completed,,Accuracy_level_1,550,/task/320432/9/asset/white.png,,, ,image-keyboard-response,99,290865,0.0-2.6-2.48,,,1,2910,1,1,1,3.5667666666666666,,,test,, 
101,1644955342650,15/02/2022 20:02:22,1644955342586,1,15/02/2022 21:02:22,73265,15,task-v1am,,19475958,BLIND,5768964,Intro Experiment: General explanations,complete,,,computer,Desktop or Laptop,Mac OS 10.15.6,Safari 14.0.2,1440x900,1440x900,Part 1 completed,Basic Experiment_Dutch_Acc1,9,Part 1 completed,,Accuracy_level_1,645.0000000000582,/task/320432/9/asset/plane.jpg,,,f,image-keyboard-response,100,293783,0.0-2.6-0.49,,1,1,2910,,,0.996969696969697,,,,test,,f
102,1644955345599,15/02/2022 20:02:25,1644955345534,1,15/02/2022 21:02:25,73265,15,task-v1am,,19475958,BLIND,5768964,Intro Experiment: General explanations,complete,,,computer,Desktop or Laptop,Mac OS 10.15.6,Safari 14.0.2,1440x900,1440x900,Part 1 completed,Basic Experiment_Dutch_Acc1,9,Part 1 completed,,Accuracy_level_1,580,/task/320432/9/asset/white.png,,, ,image-keyboard-response,101,296730,0.0-2.6-2.49,,,1,2940,1,1,1,3.6645166666666666,,,test,, 
103,1644955348552,15/02/2022 20:02:28,1644955348481,1,15/02/2022 21:02:28,73265,15,task-v1am,,19475958,BLIND,5768964,Intro Experiment: General explanations,complete,,,computer,Desktop or Laptop,Mac OS 10.15.6,Safari 14.0.2,1440x900,1440x900,Part 1 completed,Basic Experiment_Dutch_Acc1,9,Part 1 completed,,Accuracy_level_1,928,/task/320432/9/asset/elephant.jpg,,,f,image-keyboard-response,102,299677,0.0-2.6-0.50,,1,1,2940,,,0.997029702970297,,,,test,,f
104,1644955351528,15/02/2022 20:02:31,1644955351458,1,15/02/2022 21:02:31,73265,15,task-v1am,,19475958,BLIND,5768964,Intro Experiment: General explanations,complete,,,computer,Desktop or Laptop,Mac OS 10.15.6,Safari 14.0.2,1440x900,1440x900,Part 1 completed,Basic Experiment_Dutch_Acc1,9,Part 1 completed,,Accuracy_level_1,,/task/320432/9/asset/yellow.png,,,,image-keyboard-response,103,302654,0.0-2.6-2.50,,,1,2970,,1,1,3.76325,,,test,,
105,1644955354499,15/02/2022 20:02:34,1644955354435,1,15/02/2022 21:02:34,73265,15,task-v1am,,19475958,BLIND,5768964,Intro Experiment: General explanations,complete,,,computer,Desktop or Laptop,Mac OS 10.15.6,Safari 14.0.2,1440x900,1440x900,Part 1 completed,Basic Experiment_Dutch_Acc1,9,Part 1 completed,,Accuracy_level_1,690,/task/320432/9/asset/comb.jpg,,,j,image-keyboard-response,104,305631,0.0-2.6-0.51,,1,1,2970,,,0.9970873786407766,,,,test,,j
106,1644955357491,15/02/2022 20:02:37,1644955357441,1,15/02/2022 21:02:37,73265,15,task-v1am,,19475958,BLIND,5768964,Intro Experiment: General explanations,complete,,,computer,Desktop or Laptop,Mac OS 10.15.6,Safari 14.0.2,1440x900,1440x900,Part 1 completed,Basic Experiment_Dutch_Acc1,9,Part 1 completed,,Accuracy_level_1,,/task/320432/9/asset/blue.png,,,,image-keyboard-response,105,308638,0.0-2.6-2.51,,,1,3000,,1,1,3.862966666666667,,,test,,
107,1644955360517,15/02/2022 20:02:40,1644955360451,1,15/02/2022 21:02:40,73265,15,task-v1am,,19475958,BLIND,5768964,Intro Experiment: General explanations,complete,,,computer,Desktop or Laptop,Mac OS 10.15.6,Safari 14.0.2,1440x900,1440x900,Part 1 completed,Basic Experiment_Dutch_Acc1,9,Part 1 completed,,Accuracy_level_1,806,/task/320432/9/asset/pear.jpg,,,j,image-keyboard-response,106,311643,0.0-2.6-0.52,,1,1,3000,,,0.997142857142857,,,,test,,j
108,1644955363560,15/02/2022 20:02:43,1644955363487,1,15/02/2022 21:02:43,73265,15,task-v1am,,19475958,BLIND,5768964,Intro Experiment: General explanations,complete,,,computer,Desktop or Laptop,Mac OS 10.15.6,Safari 14.0.2,1440x900,1440x900,Part 1 completed,Basic Experiment_Dutch_Acc1,9,Part 1 completed,,Accuracy_level_1,,/task/320432/9/asset/black.png,,,,image-keyboard-response,107,314683,0.0-2.6-2.52,,,1,3030,,1,1,3.9637166666666666,,,test,,
109,1644955366602,15/02/2022 20:02:46,1644955366525,1,15/02/2022 21:02:46,73265,15,task-v1am,,19475958,BLIND,5768964,Intro Experiment: General explanations,complete,,,computer,Desktop or Laptop,Mac OS 10.15.6,Safari 14.0.2,1440x900,1440x900,Part 1 completed,Basic Experiment_Dutch_Acc1,9,Part 1 completed,,Accuracy_level_1,624,/task/320432/9/asset/key.jpg,,,j,image-keyboard-response,108,317721,0.0-2.6-0.53,,1,1,3030,,,0.9971962616822431,,,,test,,j
110,1644955369648,15/02/2022 20:02:49,1644955369593,1,15/02/2022 21:02:49,73265,15,task-v1am,,19475958,BLIND,5768964,Intro Experiment: General explanations,complete,,,computer,Desktop or Laptop,Mac OS 10.15.6,Safari 14.0.2,1440x900,1440x900,Part 1 completed,Basic Experiment_Dutch_Acc1,9,Part 1 completed,,Accuracy_level_1,813,/task/320432/9/asset/black.png,,, ,image-keyboard-response,109,320789,0.0-2.6-2.53,,,1,3060,1,1,1,4.0655,,,test,, 
111,1644955372710,15/02/2022 20:02:52,1644955372660,1,15/02/2022 21:02:52,73265,15,task-v1am,,19475958,BLIND,5768964,Intro Experiment: General explanations,complete,,,computer,Desktop or Laptop,Mac OS 10.15.6,Safari 14.0.2,1440x900,1440x900,Part 1 completed,Basic Experiment_Dutch_Acc1,9,Part 1 completed,,Accuracy_level_1,586,/task/320432/9/asset/house.jpg,,,f,image-keyboard-response,110,323857,0.0-2.6-0.54,,1,1,3060,,,0.9972477064220183,,,,test,,f
112,1644955375823,15/02/2022 20:02:55,1644955375758,1,15/02/2022 21:02:55,73265,15,task-v1am,,19475958,BLIND,5768964,Intro Experiment: General explanations,complete,,,computer,Desktop or Laptop,Mac OS 10.15.6,Safari 14.0.2,1440x900,1440x900,Part 1 completed,Basic Experiment_Dutch_Acc1,9,Part 1 completed,,Accuracy_level_1,671,/task/320432/9/asset/black.png,,, ,image-keyboard-response,111,326954,0.0-2.6-2.54,,,1,3090,1,1,1,4.16825,,,test,, 
113,1644955378917,15/02/2022 20:02:58,1644955378855,1,15/02/2022 21:02:58,73265,15,task-v1am,,19475958,BLIND,5768964,Intro Experiment: General explanations,complete,,,computer,Desktop or Laptop,Mac OS 10.15.6,Safari 14.0.2,1440x900,1440x900,Part 1 completed,Basic Experiment_Dutch_Acc1,9,Part 1 completed,,Accuracy_level_1,589,/task/320432/9/asset/comb.jpg,,,j,image-keyboard-response,112,330051,0.0-2.6-0.55,,1,1,3090,,,0.9972972972972973,,,,test,,j
114,1644955382028,15/02/2022 20:03:02,1644955381982,1,15/02/2022 21:03:01,73265,15,task-v1am,,19475958,BLIND,5768964,Intro Experiment: General explanations,complete,,,computer,Desktop or Laptop,Mac OS 10.15.6,Safari 14.0.2,1440x900,1440x900,Part 1 completed,Basic Experiment_Dutch_Acc1,9,Part 1 completed,,Accuracy_level_1,811.9999999999418,/task/320432/9/asset/black.png,,, ,image-keyboard-response,113,333178,0.0-2.6-2.55,,,1,3120,1,1,1,4.271983333333333,,,test,, 
115,1644955385160,15/02/2022 20:03:05,1644955385109,1,15/02/2022 21:03:05,73265,15,task-v1am,,19475958,BLIND,5768964,Intro Experiment: General explanations,complete,,,computer,Desktop or Laptop,Mac OS 10.15.6,Safari 14.0.2,1440x900,1440x900,Part 1 completed,Basic Experiment_Dutch_Acc1,9,Part 1 completed,,Accuracy_level_1,597,/task/320432/9/asset/house.jpg,,,f,image-keyboard-response,114,336305,0.0-2.7-0.56,,1,1,3120,,,0.9973451327433629,,,,test,,f
116,1644955388319,15/02/2022 20:03:08,1644955388265,1,15/02/2022 21:03:08,73265,15,task-v1am,,19475958,BLIND,5768964,Intro Experiment: General explanations,complete,,,computer,Desktop or Laptop,Mac OS 10.15.6,Safari 14.0.2,1440x900,1440x900,Part 1 completed,Basic Experiment_Dutch_Acc1,9,Part 1 completed,,Accuracy_level_1,,/task/320432/9/asset/purple.png,,,,image-keyboard-response,115,339462,0.0-2.7-2.56,,,1,3150,,1,1,4.3767,,,test,,
117,1644955391497,15/02/2022 20:03:11,1644955391428,1,15/02/2022 21:03:11,73265,15,task-v1am,,19475958,BLIND,5768964,Intro Experiment: General explanations,complete,,,computer,Desktop or Laptop,Mac OS 10.15.6,Safari 14.0.2,1440x900,1440x900,Part 1 completed,Basic Experiment_Dutch_Acc1,9,Part 1 completed,,Accuracy_level_1,1105,/task/320432/9/asset/comb.jpg,,,j,image-keyboard-response,116,342620,0.0-2.7-0.57,,1,1,3150,,,0.997391304347826,,,,test,,j
118,1644955394679,15/02/2022 20:03:14,1644955394616,1,15/02/2022 21:03:14,73265,15,task-v1am,,19475958,BLIND,5768964,Intro Experiment: General explanations,complete,,,computer,Desktop or Laptop,Mac OS 10.15.6,Safari 14.0.2,1440x900,1440x900,Part 1 completed,Basic Experiment_Dutch_Acc1,9,Part 1 completed,,Accuracy_level_1,710,/task/320432/9/asset/purple.png,,, ,image-keyboard-response,117,345812,0.0-2.7-2.57,,,1,3180,1,1,1,4.48255,,,test,, 
119,1644955397866,15/02/2022 20:03:17,1644955397804,1,15/02/2022 21:03:17,73265,15,task-v1am,,19475958,BLIND,5768964,Intro Experiment: General explanations,complete,,,computer,Desktop or Laptop,Mac OS 10.15.6,Safari 14.0.2,1440x900,1440x900,Part 1 completed,Basic Experiment_Dutch_Acc1,9,Part 1 completed,,Accuracy_level_1,669,/task/320432/9/asset/plane.jpg,,,f,image-keyboard-response,118,349000,0.0-2.7-0.58,,1,1,3180,,,0.9974358974358974,,,,test,,f
120,1644955401070,15/02/2022 20:03:21,1644955401022,1,15/02/2022 21:03:21,73265,15,task-v1am,,19475958,BLIND,5768964,Intro Experiment: General explanations,complete,,,computer,Desktop or Laptop,Mac OS 10.15.6,Safari 14.0.2,1440x900,1440x900,Part 1 completed,Basic Experiment_Dutch_Acc1,9,Part 1 completed,,Accuracy_level_1,648,/task/320432/9/asset/purple.png,,, ,image-keyboard-response,119,352218,0.0-2.7-2.58,,,1,3210,1,1,1,4.589316666666667,,,test,, 
121,1644955404300,15/02/2022 20:03:24,1644955404239,1,15/02/2022 21:03:24,73265,15,task-v1am,,19475958,BLIND,5768964,Intro Experiment: General explanations,complete,,,computer,Desktop or Laptop,Mac OS 10.15.6,Safari 14.0.2,1440x900,1440x900,Part 1 completed,Basic Experiment_Dutch_Acc1,9,Part 1 completed,,Accuracy_level_1,814,/task/320432/9/asset/pear.jpg,,,j,image-keyboard-response,120,355435,0.0-2.7-0.59,,1,1,3210,,,0.9974789915966387,,,,test,,j
122,1644955407550,15/02/2022 20:03:27,1644955407486,1,15/02/2022 21:03:27,73265,15,task-v1am,,19475958,BLIND,5768964,Intro Experiment: General explanations,complete,,,computer,Desktop or Laptop,Mac OS 10.15.6,Safari 14.0.2,1440x900,1440x900,Part 1 completed,Basic Experiment_Dutch_Acc1,9,Part 1 completed,,Accuracy_level_1,720,/task/320432/9/asset/purple.png,,, ,image-keyboard-response,121,358683,0.0-2.7-2.59,,,1,3240,1,1,1,4.69705,,,test,, 
123,1644955410787,15/02/2022 20:03:30,1644955410731,1,15/02/2022 21:03:30,73265,15,task-v1am,,19475958,BLIND,5768964,Intro Experiment: General explanations,complete,,,computer,Desktop or Laptop,Mac OS 10.15.6,Safari 14.0.2,1440x900,1440x900,Part 1 completed,Basic Experiment_Dutch_Acc1,9,Part 1 completed,,Accuracy_level_1,702,/task/320432/9/asset/key.jpg,,,j,image-keyboard-response,122,361928,0.0-2.7-0.60,,1,1,3240,,,0.9975206611570249,,,,test,,j
124,1644955414068,15/02/2022 20:03:34,1644955414009,1,15/02/2022 21:03:34,73265,15,task-v1am,,19475958,BLIND,5768964,Intro Experiment: General explanations,complete,,,computer,Desktop or Laptop,Mac OS 10.15.6,Safari 14.0.2,1440x900,1440x900,Part 1 completed,Basic Experiment_Dutch_Acc1,9,Part 1 completed,,Accuracy_level_1,,/task/320432/9/asset/green.png,,,,image-keyboard-response,123,365205,0.0-2.7-2.60,,,1,3270,,1,1,4.805766666666667,,,test,,
125,1644955417337,15/02/2022 20:03:37,1644955417286,1,15/02/2022 21:03:37,73265,15,task-v1am,,19475958,BLIND,5768964,Intro Experiment: General explanations,complete,,,computer,Desktop or Laptop,Mac OS 10.15.6,Safari 14.0.2,1440x900,1440x900,Part 1 completed,Basic Experiment_Dutch_Acc1,9,Part 1 completed,,Accuracy_level_1,875.9999999999418,/task/320432/9/asset/elephant.jpg,,,f,image-keyboard-response,124,368483,0.0-2.7-0.61,,1,1,3270,,,0.9975609756097561,,,,test,,f
126,1644955420668,15/02/2022 20:03:40,1644955420595,1,15/02/2022 21:03:40,73265,15,task-v1am,,19475958,BLIND,5768964,Intro Experiment: General explanations,complete,,,computer,Desktop or Laptop,Mac OS 10.15.6,Safari 14.0.2,1440x900,1440x900,Part 1 completed,Basic Experiment_Dutch_Acc1,9,Part 1 completed,,Accuracy_level_1,923,/task/320432/9/asset/green.png,,, ,image-keyboard-response,125,371791,0.0-2.7-2.61,,,1,3300,1,1,1,4.915516666666667,,,test,, 
127,1644955423970,15/02/2022 20:03:43,1644955423902,1,15/02/2022 21:03:43,73265,15,task-v1am,,19475958,BLIND,5768964,Intro Experiment: General explanations,complete,,,computer,Desktop or Laptop,Mac OS 10.15.6,Safari 14.0.2,1440x900,1440x900,Part 1 completed,Basic Experiment_Dutch_Acc1,9,Part 1 completed,,Accuracy_level_1,634,/task/320432/9/asset/comb.jpg,,,j,image-keyboard-response,126,375099,0.0-2.7-0.62,,1,1,3300,,,0.9975999999999999,,,,test,,j
128,1644955427302,15/02/2022 20:03:47,1644955427242,1,15/02/2022 21:03:47,73265,15,task-v1am,,19475958,BLIND,5768964,Intro Experiment: General explanations,complete,,,computer,Desktop or Laptop,Mac OS 10.15.6,Safari 14.0.2,1440x900,1440x900,Part 1 completed,Basic Experiment_Dutch_Acc1,9,Part 1 completed,,Accuracy_level_1,,/task/320432/9/asset/pink.png,,,,image-keyboard-response,127,378439,0.0-2.7-2.62,,,1,3330,,1,1,5.026316666666666,,,test,,
129,1644955430637,15/02/2022 20:03:50,1644955430580,1,15/02/2022 21:03:50,73265,15,task-v1am,,19475958,BLIND,5768964,Intro Experiment: General explanations,complete,,,computer,Desktop or Laptop,Mac OS 10.15.6,Safari 14.0.2,1440x900,1440x900,Part 1 completed,Basic Experiment_Dutch_Acc1,9,Part 1 completed,,Accuracy_level_1,729,/task/320432/9/asset/pear.jpg,,,j,image-keyboard-response,128,381776,0.0-2.7-0.63,,1,1,3330,,,0.9976377952755906,,,,test,,j
130,1644955434015,15/02/2022 20:03:54,1644955433949,1,15/02/2022 21:03:53,73265,15,task-v1am,,19475958,BLIND,5768964,Intro Experiment: General explanations,complete,,,computer,Desktop or Laptop,Mac OS 10.15.6,Safari 14.0.2,1440x900,1440x900,Part 1 completed,Basic Experiment_Dutch_Acc1,9,Part 1 completed,,Accuracy_level_1,663,/task/320432/9/asset/pink.png,,, ,image-keyboard-response,129,385145,0.0-2.7-2.63,,,1,3360,1,1,1,5.1381,,,test,, 
1,1646737289006,08/03/2022 11:01:29,1646737288665,1,08/03/2022 12:01:28,73265,15,task-v1am,,20182906,BLIND,5973538,Intro Experiment: General explanations,complete,,,computer,Desktop or Laptop,Windows 10,Firefox 97.0,1536x864,1536x864,Part 1 completed,Basic Experiment_Dutch_Acc1,9,Part 1 completed,,Accuracy_level_1,,,,,,fullscreen,0,13277,0.0-0.0,,,,,,,,,,,,,
2,1646737293758,08/03/2022 11:01:33,1646737293443,1,08/03/2022 12:01:33,73265,15,task-v1am,,20182906,BLIND,5973538,Intro Experiment: General explanations,complete,,,computer,Desktop or Laptop,Windows 10,Firefox 97.0,1536x864,1536x864,Part 1 completed,Basic Experiment_Dutch_Acc1,9,Part 1 completed,,Accuracy_level_1,4772,,,,,instructions,1,18055,0.0-1.0,,,,,,,,,2022-03-08T11:01:33.443Z,[1],test,,
3,1646737295276,08/03/2022 11:01:35,1646737294966,1,08/03/2022 12:01:34,73265,15,task-v1am,,20182906,BLIND,5973538,Intro Experiment: General explanations,complete,,,computer,Desktop or Laptop,Windows 10,Firefox 97.0,1536x864,1536x864,Part 1 completed,Basic Experiment_Dutch_Acc1,9,Part 1 completed,,Accuracy_level_1,831,/task/320432/9/asset/pear.jpg,,,j,image-keyboard-response,2,19577,0.0-2.0-0.0,,1,1,1500,,,0.7,,,,test,,j
4,1646737296786,08/03/2022 11:01:36,1646737296477,1,08/03/2022 12:01:36,73265,15,task-v1am,,20182906,BLIND,5973538,Intro Experiment: General explanations,complete,,,computer,Desktop or Laptop,Windows 10,Firefox 97.0,1536x864,1536x864,Part 1 completed,Basic Experiment_Dutch_Acc1,9,Part 1 completed,,Accuracy_level_1,,/task/320432/9/asset/white.png,,,,image-keyboard-response,3,21088,0.0-2.0-2.0,,,1,1500,,1,1,0.05056666666666667,,,test,,
5,1646737298286,08/03/2022 11:01:38,1646737297989,1,08/03/2022 12:01:37,73265,15,task-v1am,,20182906,BLIND,5973538,Intro Experiment: General explanations,complete,,,computer,Desktop or Laptop,Windows 10,Firefox 97.0,1536x864,1536x864,Part 1 completed,Basic Experiment_Dutch_Acc1,9,Part 1 completed,,Accuracy_level_1,1169,/task/320432/9/asset/plane.jpg,,,f,image-keyboard-response,4,22601,0.0-2.0-0.1,,1,1,1500,,,0.9,,,,test,,f
6,1646737299776,08/03/2022 11:01:39,1646737299498,1,08/03/2022 12:01:39,73265,15,task-v1am,,20182906,BLIND,5973538,Intro Experiment: General explanations,complete,,,computer,Desktop or Laptop,Windows 10,Firefox 97.0,1536x864,1536x864,Part 1 completed,Basic Experiment_Dutch_Acc1,9,Part 1 completed,,Accuracy_level_1,502,/task/320432/9/asset/white.png,,, ,image-keyboard-response,5,24110,0.0-2.0-2.1,,,1,1500,1,1,1,0.10091666666666667,,,test,, 
7,1646737301296,08/03/2022 11:01:41,1646737301004,1,08/03/2022 12:01:41,73265,15,task-v1am,,20182906,BLIND,5973538,Intro Experiment: General explanations,complete,,,computer,Desktop or Laptop,Windows 10,Firefox 97.0,1536x864,1536x864,Part 1 completed,Basic Experiment_Dutch_Acc1,9,Part 1 completed,,Accuracy_level_1,740,/task/320432/9/asset/comb.jpg,,,j,image-keyboard-response,6,25615,0.0-2.0-0.2,,1,1,1500,,,0.9400000000000001,,,,test,,j
8,1646737302842,08/03/2022 11:01:42,1646737302555,1,08/03/2022 12:01:42,73265,15,task-v1am,,20182906,BLIND,5973538,Intro Experiment: General explanations,complete,,,computer,Desktop or Laptop,Windows 10,Firefox 97.0,1536x864,1536x864,Part 1 completed,Basic Experiment_Dutch_Acc1,9,Part 1 completed,,Accuracy_level_1,,/task/320432/9/asset/yellow.png,,,,image-keyboard-response,7,27166,0.0-2.0-2.2,,,1,1530,,1,1,0.15186666666666668,,,test,,
9,1646737304416,08/03/2022 11:01:44,1646737304089,1,08/03/2022 12:01:44,73265,15,task-v1am,,20182906,BLIND,5973538,Intro Experiment: General explanations,complete,,,computer,Desktop or Laptop,Windows 10,Firefox 97.0,1536x864,1536x864,Part 1 completed,Basic Experiment_Dutch_Acc1,9,Part 1 completed,,Accuracy_level_1,630,/task/320432/9/asset/comb.jpg,,,j,image-keyboard-response,8,28700,0.0-2.0-0.3,,1,1,1530,,,0.9571428571428571,,,,test,,j
10,1646737305956,08/03/2022 11:01:45,1646737305667,1,08/03/2022 12:01:45,73265,15,task-v1am,,20182906,BLIND,5973538,Intro Experiment: General explanations,complete,,,computer,Desktop or Laptop,Windows 10,Firefox 97.0,1536x864,1536x864,Part 1 completed,Basic Experiment_Dutch_Acc1,9,Part 1 completed,,Accuracy_level_1,486,/task/320432/9/asset/yellow.png,,, ,image-keyboard-response,9,30278,0.0-2.0-2.3,,,1,1560,1,1,1,0.20371666666666666,,,test,, 
11,1646737307538,08/03/2022 11:01:47,1646737307237,1,08/03/2022 12:01:47,73265,15,task-v1am,,20182906,BLIND,5973538,Intro Experiment: General explanations,complete,,,computer,Desktop or Laptop,Windows 10,Firefox 97.0,1536x864,1536x864,Part 1 completed,Basic Experiment_Dutch_Acc1,9,Part 1 completed,,Accuracy_level_1,786,/task/320432/9/asset/elephant.jpg,,,f,image-keyboard-response,10,31848,0.0-2.0-0.4,,1,1,1560,,,0.9666666666666666,,,,test,,f
12,1646737309127,08/03/2022 11:01:49,1646737308843,1,08/03/2022 12:01:48,73265,15,task-v1am,,20182906,BLIND,5973538,Intro Experiment: General explanations,complete,,,computer,Desktop or Laptop,Windows 10,Firefox 97.0,1536x864,1536x864,Part 1 completed,Basic Experiment_Dutch_Acc1,9,Part 1 completed,,Accuracy_level_1,1107,/task/320432/9/asset/yellow.png,,, ,image-keyboard-response,11,33454,0.0-2.0-2.4,,,1,1590,1,1,1,0.25666666666666665,,,test,, 
13,1646737310752,08/03/2022 11:01:50,1646737310458,1,08/03/2022 12:01:50,73265,15,task-v1am,,20182906,BLIND,5973538,Intro Experiment: General explanations,complete,,,computer,Desktop or Laptop,Windows 10,Firefox 97.0,1536x864,1536x864,Part 1 completed,Basic Experiment_Dutch_Acc1,9,Part 1 completed,,Accuracy_level_1,595,/task/320432/9/asset/pear.jpg,,,j,image-keyboard-response,12,35070,0.0-2.0-0.5,,1,1,1590,,,0.9727272727272727,,,,test,,j
14,1646737312380,08/03/2022 11:01:52,1646737312083,1,08/03/2022 12:01:52,73265,15,task-v1am,,20182906,BLIND,5973538,Intro Experiment: General explanations,complete,,,computer,Desktop or Laptop,Windows 10,Firefox 97.0,1536x864,1536x864,Part 1 completed,Basic Experiment_Dutch_Acc1,9,Part 1 completed,,Accuracy_level_1,565,/task/320432/9/asset/yellow.png,,, ,image-keyboard-response,13,36695,0.0-2.0-2.5,,,1,1620,1,1,1,0.31066666666666665,,,test,, 
15,1646737314005,08/03/2022 11:01:54,1646737313711,1,08/03/2022 12:01:53,73265,15,task-v1am,,20182906,BLIND,5973538,Intro Experiment: General explanations,complete,,,computer,Desktop or Laptop,Windows 10,Firefox 97.0,1536x864,1536x864,Part 1 completed,Basic Experiment_Dutch_Acc1,9,Part 1 completed,,Accuracy_level_1,939,/task/320432/9/asset/house.jpg,,,f,image-keyboard-response,14,38323,0.0-2.0-0.6,,1,1,1620,,,0.9769230769230769,,,,test,,f
16,1646737315681,08/03/2022 11:01:55,1646737315375,1,08/03/2022 12:01:55,73265,15,task-v1am,,20182906,BLIND,5973538,Intro Experiment: General explanations,complete,,,computer,Desktop or Laptop,Windows 10,Firefox 97.0,1536x864,1536x864,Part 1 completed,Basic Experiment_Dutch_Acc1,9,Part 1 completed,,Accuracy_level_1,,/task/320432/9/asset/green.png,,,,image-keyboard-response,15,39986,0.0-2.0-2.6,,,1,1650,,1,1,0.3655333333333333,,,test,,
17,1646737317333,08/03/2022 11:01:57,1646737317033,1,08/03/2022 12:01:57,73265,15,task-v1am,,20182906,BLIND,5973538,Intro Experiment: General explanations,complete,,,computer,Desktop or Laptop,Windows 10,Firefox 97.0,1536x864,1536x864,Part 1 completed,Basic Experiment_Dutch_Acc1,9,Part 1 completed,,Accuracy_level_1,614,/task/320432/9/asset/glass.jpg,,,j,image-keyboard-response,16,41644,0.0-2.0-0.7,,1,1,1650,,,0.98,,,,test,,j
18,1646737319016,08/03/2022 11:01:59,1646737318718,1,08/03/2022 12:01:58,73265,15,task-v1am,,20182906,BLIND,5973538,Intro Experiment: General explanations,complete,,,computer,Desktop or Laptop,Windows 10,Firefox 97.0,1536x864,1536x864,Part 1 completed,Basic Experiment_Dutch_Acc1,9,Part 1 completed,,Accuracy_level_1,503,/task/320432/9/asset/green.png,,, ,image-keyboard-response,17,43330,0.0-2.0-2.7,,,1,1680,1,1,1,0.42125,,,test,, 
19,1646737320713,08/03/2022 11:02:00,1646737320413,1,08/03/2022 12:02:00,73265,15,task-v1am,,20182906,BLIND,5973538,Intro Experiment: General explanations,complete,,,computer,Desktop or Laptop,Windows 10,Firefox 97.0,1536x864,1536x864,Part 1 completed,Basic Experiment_Dutch_Acc1,9,Part 1 completed,,Accuracy_level_1,716,/task/320432/9/asset/pear.jpg,,,j,image-keyboard-response,18,45024,0.0-2.1-0.8,,1,1,1680,,,0.9823529411764708,,,,test,,j
20,1646737322417,08/03/2022 11:02:02,1646737322127,1,08/03/2022 12:02:02,73265,15,task-v1am,,20182906,BLIND,5973538,Intro Experiment: General explanations,complete,,,computer,Desktop or Laptop,Windows 10,Firefox 97.0,1536x864,1536x864,Part 1 completed,Basic Experiment_Dutch_Acc1,9,Part 1 completed,,Accuracy_level_1,437,/task/320432/9/asset/green.png,,, ,image-keyboard-response,19,46739,0.0-2.1-2.8,,,1,1710,1,1,1,0.47806666666666664,,,test,, 
21,1646737324141,08/03/2022 11:02:04,1646737323857,1,08/03/2022 12:02:03,73265,15,task-v1am,,20182906,BLIND,5973538,Intro Experiment: General explanations,complete,,,computer,Desktop or Laptop,Windows 10,Firefox 97.0,1536x864,1536x864,Part 1 completed,Basic Experiment_Dutch_Acc1,9,Part 1 completed,,Accuracy_level_1,769,/task/320432/9/asset/truck.jpg,,,f,image-keyboard-response,20,48469,0.0-2.1-0.9,,1,1,1710,,,0.9842105263157894,,,,test,,f
22,1646737325906,08/03/2022 11:02:05,1646737325615,1,08/03/2022 12:02:05,73265,15,task-v1am,,20182906,BLIND,5973538,Intro Experiment: General explanations,complete,,,computer,Desktop or Laptop,Windows 10,Firefox 97.0,1536x864,1536x864,Part 1 completed,Basic Experiment_Dutch_Acc1,9,Part 1 completed,,Accuracy_level_1,729,/task/320432/9/asset/green.png,,, ,image-keyboard-response,21,50226,0.0-2.1-2.9,,,1,1740,1,1,1,0.5362,,,test,, 
23,1646737327667,08/03/2022 11:02:07,1646737327371,1,08/03/2022 12:02:07,73265,15,task-v1am,,20182906,BLIND,5973538,Intro Experiment: General explanations,complete,,,computer,Desktop or Laptop,Windows 10,Firefox 97.0,1536x864,1536x864,Part 1 completed,Basic Experiment_Dutch_Acc1,9,Part 1 completed,,Accuracy_level_1,680,/task/320432/9/asset/house.jpg,,,f,image-keyboard-response,22,51983,0.0-2.1-0.10,,1,1,1740,,,0.9857142857142857,,,,test,,f
24,1646737329452,08/03/2022 11:02:09,1646737329152,1,08/03/2022 12:02:09,73265,15,task-v1am,,20182906,BLIND,5973538,Intro Experiment: General explanations,complete,,,computer,Desktop or Laptop,Windows 10,Firefox 97.0,1536x864,1536x864,Part 1 completed,Basic Experiment_Dutch_Acc1,9,Part 1 completed,,Accuracy_level_1,774,/task/320432/9/asset/green.png,,, ,image-keyboard-response,23,53763,0.0-2.1-2.10,,,1,1770,1,1,1,0.59515,,,test,, 
25,1646737331218,08/03/2022 11:02:11,1646737330927,1,08/03/2022 12:02:10,73265,15,task-v1am,,20182906,BLIND,5973538,Intro Experiment: General explanations,complete,,,computer,Desktop or Laptop,Windows 10,Firefox 97.0,1536x864,1536x864,Part 1 completed,Basic Experiment_Dutch_Acc1,9,Part 1 completed,,Accuracy_level_1,658,/task/320432/9/asset/comb.jpg,,,j,image-keyboard-response,24,55539,0.0-2.1-0.11,,1,1,1770,,,0.9869565217391305,,,,test,,j
26,1646737333032,08/03/2022 11:02:13,1646737332734,1,08/03/2022 12:02:12,73265,15,task-v1am,,20182906,BLIND,5973538,Intro Experiment: General explanations,complete,,,computer,Desktop or Laptop,Windows 10,Firefox 97.0,1536x864,1536x864,Part 1 completed,Basic Experiment_Dutch_Acc1,9,Part 1 completed,,Accuracy_level_1,,/task/320432/9/asset/yellow.png,,,,image-keyboard-response,25,57346,0.0-2.1-2.11,,,1,1800,,1,1,0.65485,,,test,,
27,1646737334848,08/03/2022 11:02:14,1646737334544,1,08/03/2022 12:02:14,73265,15,task-v1am,,20182906,BLIND,5973538,Intro Experiment: General explanations,complete,,,computer,Desktop or Laptop,Windows 10,Firefox 97.0,1536x864,1536x864,Part 1 completed,Basic Experiment_Dutch_Acc1,9,Part 1 completed,,Accuracy_level_1,701,/task/320432/9/asset/truck.jpg,,,f,image-keyboard-response,26,59155,0.0-2.1-0.12,,1,1,1800,,,0.988,,,,test,,f
28,1646737336686,08/03/2022 11:02:16,1646737336384,1,08/03/2022 12:02:16,73265,15,task-v1am,,20182906,BLIND,5973538,Intro Experiment: General explanations,complete,,,computer,Desktop or Laptop,Windows 10,Firefox 97.0,1536x864,1536x864,Part 1 completed,Basic Experiment_Dutch_Acc1,9,Part 1 completed,,Accuracy_level_1,553,/task/320432/9/asset/yellow.png,,, ,image-keyboard-response,27,60995,0.0-2.1-2.12,,,1,1830,1,1,1,0.7156833333333333,,,test,, 
29,1646737338517,08/03/2022 11:02:18,1646737338218,1,08/03/2022 12:02:18,73265,15,task-v1am,,20182906,BLIND,5973538,Intro Experiment: General explanations,complete,,,computer,Desktop or Laptop,Windows 10,Firefox 97.0,1536x864,1536x864,Part 1 completed,Basic Experiment_Dutch_Acc1,9,Part 1 completed,,Accuracy_level_1,601,/task/320432/9/asset/pear.jpg,,,j,image-keyboard-response,28,62829,0.0-2.1-0.13,,1,1,1830,,,0.9888888888888888,,,,test,,j
30,1646737340386,08/03/2022 11:02:20,1646737340095,1,08/03/2022 12:02:20,73265,15,task-v1am,,20182906,BLIND,5973538,Intro Experiment: General explanations,complete,,,computer,Desktop or Laptop,Windows 10,Firefox 97.0,1536x864,1536x864,Part 1 completed,Basic Experiment_Dutch_Acc1,9,Part 1 completed,,Accuracy_level_1,493,/task/320432/9/asset/yellow.png,,, ,image-keyboard-response,29,64707,0.0-2.1-2.13,,,1,1860,1,1,1,0.7775333333333333,,,test,, 
31,1646737342276,08/03/2022 11:02:22,1646737341989,1,08/03/2022 12:02:21,73265,15,task-v1am,,20182906,BLIND,5973538,Intro Experiment: General explanations,complete,,,computer,Desktop or Laptop,Windows 10,Firefox 97.0,1536x864,1536x864,Part 1 completed,Basic Experiment_Dutch_Acc1,9,Part 1 completed,,Accuracy_level_1,800,/task/320432/9/asset/house.jpg,,,f,image-keyboard-response,30,66601,0.0-2.1-0.14,,1,1,1860,,,0.9896551724137931,,,,test,,f
32,1646737344192,08/03/2022 11:02:24,1646737343896,1,08/03/2022 12:02:23,73265,15,task-v1am,,20182906,BLIND,5973538,Intro Experiment: General explanations,complete,,,computer,Desktop or Laptop,Windows 10,Firefox 97.0,1536x864,1536x864,Part 1 completed,Basic Experiment_Dutch_Acc1,9,Part 1 completed,,Accuracy_level_1,,/task/320432/9/asset/black.png,,,,image-keyboard-response,31,68506,0.0-2.1-2.14,,,1,1890,,1,1,0.8408833333333333,,,test,,
33,1646737346097,08/03/2022 11:02:26,1646737345801,1,08/03/2022 12:02:25,73265,15,task-v1am,,20182906,BLIND,5973538,Intro Experiment: General explanations,complete,,,computer,Desktop or Laptop,Windows 10,Firefox 97.0,1536x864,1536x864,Part 1 completed,Basic Experiment_Dutch_Acc1,9,Part 1 completed,,Accuracy_level_1,752,/task/320432/9/asset/key.jpg,,,j,image-keyboard-response,32,70412,0.0-2.1-0.15,,1,1,1890,,,0.9903225806451613,,,,test,,j
34,1646737348013,08/03/2022 11:02:28,1646737347733,1,08/03/2022 12:02:27,73265,15,task-v1am,,20182906,BLIND,5973538,Intro Experiment: General explanations,complete,,,computer,Desktop or Laptop,Windows 10,Firefox 97.0,1536x864,1536x864,Part 1 completed,Basic Experiment_Dutch_Acc1,9,Part 1 completed,,Accuracy_level_1,,/task/320432/9/asset/purple.png,,,,image-keyboard-response,33,72343,0.0-2.1-2.15,,,1,1920,,1,1,0.9048333333333334,,,test,,
35,1646737349966,08/03/2022 11:02:29,1646737349674,1,08/03/2022 12:02:29,73265,15,task-v1am,,20182906,BLIND,5973538,Intro Experiment: General explanations,complete,,,computer,Desktop or Laptop,Windows 10,Firefox 97.0,1536x864,1536x864,Part 1 completed,Basic Experiment_Dutch_Acc1,9,Part 1 completed,,Accuracy_level_1,648,/task/320432/9/asset/pear.jpg,,,j,image-keyboard-response,34,74285,0.0-2.2-0.16,,1,1,1920,,,0.990909090909091,,,,test,,j
36,1646737351936,08/03/2022 11:02:31,1646737351637,1,08/03/2022 12:02:31,73265,15,task-v1am,,20182906,BLIND,5973538,Intro Experiment: General explanations,complete,,,computer,Desktop or Laptop,Windows 10,Firefox 97.0,1536x864,1536x864,Part 1 completed,Basic Experiment_Dutch_Acc1,9,Part 1 completed,,Accuracy_level_1,629,/task/320432/9/asset/purple.png,,, ,image-keyboard-response,35,76248,0.0-2.2-2.16,,,1,1950,1,1,1,0.9699,,,test,, 
37,1646737353885,08/03/2022 11:02:33,1646737353600,1,08/03/2022 12:02:33,73265,15,task-v1am,,20182906,BLIND,5973538,Intro Experiment: General explanations,complete,,,computer,Desktop or Laptop,Windows 10,Firefox 97.0,1536x864,1536x864,Part 1 completed,Basic Experiment_Dutch_Acc1,9,Part 1 completed,,Accuracy_level_1,843,/task/320432/9/asset/elephant.jpg,,,f,image-keyboard-response,36,78211,0.0-2.2-0.17,,1,1,1950,,,0.9914285714285715,,,,test,,f
38,1646737355902,08/03/2022 11:02:35,1646737355600,1,08/03/2022 12:02:35,73265,15,task-v1am,,20182906,BLIND,5973538,Intro Experiment: General explanations,complete,,,computer,Desktop or Laptop,Windows 10,Firefox 97.0,1536x864,1536x864,Part 1 completed,Basic Experiment_Dutch_Acc1,9,Part 1 completed,,Accuracy_level_1,842,/task/320432/9/asset/purple.png,,, ,image-keyboard-response,37,80211,0.0-2.2-2.17,,,1,1980,1,1,1,1.0359333333333334,,,test,, 
39,1646737357878,08/03/2022 11:02:37,1646737357588,1,08/03/2022 12:02:37,73265,15,task-v1am,,20182906,BLIND,5973538,Intro Experiment: General explanations,complete,,,computer,Desktop or Laptop,Windows 10,Firefox 97.0,1536x864,1536x864,Part 1 completed,Basic Experiment_Dutch_Acc1,9,Part 1 completed,,Accuracy_level_1,910,/task/320432/9/asset/plane.jpg,,,f,image-keyboard-response,38,82199,0.0-2.2-0.18,,1,1,1980,,,0.991891891891892,,,,test,,f
40,1646737359930,08/03/2022 11:02:39,1646737359636,1,08/03/2022 12:02:39,73265,15,task-v1am,,20182906,BLIND,5973538,Intro Experiment: General explanations,complete,,,computer,Desktop or Laptop,Windows 10,Firefox 97.0,1536x864,1536x864,Part 1 completed,Basic Experiment_Dutch_Acc1,9,Part 1 completed,,Accuracy_level_1,929,/task/320432/9/asset/purple.png,,, ,image-keyboard-response,39,84247,0.0-2.2-2.18,,,1,2010,1,1,1,1.1032166666666667,,,test,, 
41,1646737361947,08/03/2022 11:02:41,1646737361658,1,08/03/2022 12:02:41,73265,15,task-v1am,,20182906,BLIND,5973538,Intro Experiment: General explanations,complete,,,computer,Desktop or Laptop,Windows 10,Firefox 97.0,1536x864,1536x864,Part 1 completed,Basic Experiment_Dutch_Acc1,9,Part 1 completed,,Accuracy_level_1,975,/task/320432/9/asset/truck.jpg,,,f,image-keyboard-response,40,86269,0.0-2.2-0.19,,1,1,2010,,,0.9923076923076923,,,,test,,f
42,1646737363995,08/03/2022 11:02:43,1646737363706,1,08/03/2022 12:02:43,73265,15,task-v1am,,20182906,BLIND,5973538,Intro Experiment: General explanations,complete,,,computer,Desktop or Laptop,Windows 10,Firefox 97.0,1536x864,1536x864,Part 1 completed,Basic Experiment_Dutch_Acc1,9,Part 1 completed,,Accuracy_level_1,541,/task/320432/9/asset/purple.png,,, ,image-keyboard-response,41,88317,0.0-2.2-2.19,,,1,2040,1,1,1,1.17105,,,test,, 
43,1646737366073,08/03/2022 11:02:46,1646737365760,1,08/03/2022 12:02:45,73265,15,task-v1am,,20182906,BLIND,5973538,Intro Experiment: General explanations,complete,,,computer,Desktop or Laptop,Windows 10,Firefox 97.0,1536x864,1536x864,Part 1 completed,Basic Experiment_Dutch_Acc1,9,Part 1 completed,,Accuracy_level_1,697,/task/320432/9/asset/truck.jpg,,,f,image-keyboard-response,42,90372,0.0-2.2-0.20,,1,1,2040,,,0.9926829268292684,,,,test,,f
44,1646737368145,08/03/2022 11:02:48,1646737367845,1,08/03/2022 12:02:47,73265,15,task-v1am,,20182906,BLIND,5973538,Intro Experiment: General explanations,complete,,,computer,Desktop or Laptop,Windows 10,Firefox 97.0,1536x864,1536x864,Part 1 completed,Basic Experiment_Dutch_Acc1,9,Part 1 completed,,Accuracy_level_1,536,/task/320432/9/asset/purple.png,,, ,image-keyboard-response,43,92456,0.0-2.2-2.20,,,1,2070,1,1,1,1.2400333333333333,,,test,, 
45,1646737370213,08/03/2022 11:02:50,1646737369919,1,08/03/2022 12:02:49,73265,15,task-v1am,,20182906,BLIND,5973538,Intro Experiment: General explanations,complete,,,computer,Desktop or Laptop,Windows 10,Firefox 97.0,1536x864,1536x864,Part 1 completed,Basic Experiment_Dutch_Acc1,9,Part 1 completed,,Accuracy_level_1,752,/task/320432/9/asset/elephant.jpg,,,f,image-keyboard-response,44,94531,0.0-2.2-0.21,,1,1,2070,,,0.9930232558139536,,,,test,,f
46,1646737372307,08/03/2022 11:02:52,1646737372025,1,08/03/2022 12:02:52,73265,15,task-v1am,,20182906,BLIND,5973538,Intro Experiment: General explanations,complete,,,computer,Desktop or Laptop,Windows 10,Firefox 97.0,1536x864,1536x864,Part 1 completed,Basic Experiment_Dutch_Acc1,9,Part 1 completed,,Accuracy_level_1,756,/task/320432/9/asset/purple.png,,, ,image-keyboard-response,45,96637,0.0-2.2-2.21,,,1,2100,1,1,1,1.3097,,,test,, 
47,1646737374421,08/03/2022 11:02:54,1646737374132,1,08/03/2022 12:02:54,73265,15,task-v1am,,20182906,BLIND,5973538,Intro Experiment: General explanations,complete,,,computer,Desktop or Laptop,Windows 10,Firefox 97.0,1536x864,1536x864,Part 1 completed,Basic Experiment_Dutch_Acc1,9,Part 1 completed,,Accuracy_level_1,686,/task/320432/9/asset/house.jpg,,,f,image-keyboard-response,46,98744,0.0-2.2-0.22,,1,1,2100,,,0.9933333333333334,,,,test,,f
48,1646737376575,08/03/2022 11:02:56,1646737376276,1,08/03/2022 12:02:56,73265,15,task-v1am,,20182906,BLIND,5973538,Intro Experiment: General explanations,complete,,,computer,Desktop or Laptop,Windows 10,Firefox 97.0,1536x864,1536x864,Part 1 completed,Basic Experiment_Dutch_Acc1,9,Part 1 completed,,Accuracy_level_1,,/task/320432/9/asset/green.png,,,,image-keyboard-response,47,100887,0.0-2.2-2.22,,,1,2130,,1,1,1.38055,,,test,,
49,1646737378707,08/03/2022 11:02:58,1646737378410,1,08/03/2022 12:02:58,73265,15,task-v1am,,20182906,BLIND,5973538,Intro Experiment: General explanations,complete,,,computer,Desktop or Laptop,Windows 10,Firefox 97.0,1536x864,1536x864,Part 1 completed,Basic Experiment_Dutch_Acc1,9,Part 1 completed,,Accuracy_level_1,673,/task/320432/9/asset/glass.jpg,,,j,image-keyboard-response,48,103021,0.0-2.2-0.23,,1,1,2130,,,0.9936170212765958,,,,test,,j
50,1646737380878,08/03/2022 11:03:00,1646737380581,1,08/03/2022 12:03:00,73265,15,task-v1am,,20182906,BLIND,5973538,Intro Experiment: General explanations,complete,,,computer,Desktop or Laptop,Windows 10,Firefox 97.0,1536x864,1536x864,Part 1 completed,Basic Experiment_Dutch_Acc1,9,Part 1 completed,,Accuracy_level_1,797,/task/320432/9/asset/green.png,,, ,image-keyboard-response,49,105192,0.0-2.2-2.23,,,1,2160,1,1,1,1.4523,,,test,, 
51,1646737383043,08/03/2022 11:03:03,1646737382753,1,08/03/2022 12:03:02,73265,15,task-v1am,,20182906,BLIND,5973538,Intro Experiment: General explanations,complete,,,computer,Desktop or Laptop,Windows 10,Firefox 97.0,1536x864,1536x864,Part 1 completed,Basic Experiment_Dutch_Acc1,9,Part 1 completed,,Accuracy_level_1,834,/task/320432/9/asset/glass.jpg,,,j,image-keyboard-response,50,107364,0.0-2.3-0.24,,1,1,2160,,,0.9938775510204082,,,,test,,j
52,1646737385250,08/03/2022 11:03:05,1646737384948,1,08/03/2022 12:03:04,73265,15,task-v1am,,20182906,BLIND,5973538,Intro Experiment: General explanations,complete,,,computer,Desktop or Laptop,Windows 10,Firefox 97.0,1536x864,1536x864,Part 1 completed,Basic Experiment_Dutch_Acc1,9,Part 1 completed,,Accuracy_level_1,,/task/320432/9/asset/pink.png,,,,image-keyboard-response,51,109559,0.0-2.3-2.24,,,1,2190,,1,1,1.5250833333333333,,,test,,
53,1646737387450,08/03/2022 11:03:07,1646737387152,1,08/03/2022 12:03:07,73265,15,task-v1am,,20182906,BLIND,5973538,Intro Experiment: General explanations,complete,,,computer,Desktop or Laptop,Windows 10,Firefox 97.0,1536x864,1536x864,Part 1 completed,Basic Experiment_Dutch_Acc1,9,Part 1 completed,,Accuracy_level_1,1053,/task/320432/9/asset/pear.jpg,,,j,image-keyboard-response,52,111764,0.0-2.3-0.25,,1,1,2190,,,0.9941176470588236,,,,test,,j
54,1646737389684,08/03/2022 11:03:09,1646737389388,1,08/03/2022 12:03:09,73265,15,task-v1am,,20182906,BLIND,5973538,Intro Experiment: General explanations,complete,,,computer,Desktop or Laptop,Windows 10,Firefox 97.0,1536x864,1536x864,Part 1 completed,Basic Experiment_Dutch_Acc1,9,Part 1 completed,,Accuracy_level_1,722,/task/320432/9/asset/pink.png,,, ,image-keyboard-response,53,114000,0.0-2.3-2.25,,,1,2220,1,1,1,1.5990833333333334,,,test,, 
55,1646737391905,08/03/2022 11:03:11,1646737391615,1,08/03/2022 12:03:11,73265,15,task-v1am,,20182906,BLIND,5973538,Intro Experiment: General explanations,complete,,,computer,Desktop or Laptop,Windows 10,Firefox 97.0,1536x864,1536x864,Part 1 completed,Basic Experiment_Dutch_Acc1,9,Part 1 completed,,Accuracy_level_1,859,/task/320432/9/asset/house.jpg,,,f,image-keyboard-response,54,116227,0.0-2.3-0.26,,1,1,2220,,,0.9943396226415093,,,,test,,f
56,1646737394174,08/03/2022 11:03:14,1646737393877,1,08/03/2022 12:03:13,73265,15,task-v1am,,20182906,BLIND,5973538,Intro Experiment: General explanations,complete,,,computer,Desktop or Laptop,Windows 10,Firefox 97.0,1536x864,1536x864,Part 1 completed,Basic Experiment_Dutch_Acc1,9,Part 1 completed,,Accuracy_level_1,563,/task/320432/9/asset/pink.png,,, ,image-keyboard-response,55,118488,0.0-2.3-2.26,,,1,2250,1,1,1,1.6739,,,test,, 
57,1646737396433,08/03/2022 11:03:16,1646737396143,1,08/03/2022 12:03:16,73265,15,task-v1am,,20182906,BLIND,5973538,Intro Experiment: General explanations,complete,,,computer,Desktop or Laptop,Windows 10,Firefox 97.0,1536x864,1536x864,Part 1 completed,Basic Experiment_Dutch_Acc1,9,Part 1 completed,,Accuracy_level_1,721,/task/320432/9/asset/pear.jpg,,,j,image-keyboard-response,56,120755,0.0-2.3-0.27,,1,1,2250,,,0.9945454545454546,,,,test,,j
58,1646737398720,08/03/2022 11:03:18,1646737398430,1,08/03/2022 12:03:18,73265,15,task-v1am,,20182906,BLIND,5973538,Intro Experiment: General explanations,complete,,,computer,Desktop or Laptop,Windows 10,Firefox 97.0,1536x864,1536x864,Part 1 completed,Basic Experiment_Dutch_Acc1,9,Part 1 completed,,Accuracy_level_1,657,/task/320432/9/asset/pink.png,,, ,image-keyboard-response,57,123042,0.0-2.3-2.27,,,1,2280,1,1,1,1.7497833333333332,,,test,, 
59,1646737401017,08/03/2022 11:03:21,1646737400715,1,08/03/2022 12:03:20,73265,15,task-v1am,,20182906,BLIND,5973538,Intro Experiment: General explanations,complete,,,computer,Desktop or Laptop,Windows 10,Firefox 97.0,1536x864,1536x864,Part 1 completed,Basic Experiment_Dutch_Acc1,9,Part 1 completed,,Accuracy_level_1,741,/task/320432/9/asset/plane.jpg,,,f,image-keyboard-response,58,125326,0.0-2.3-0.28,,1,1,2280,,,0.9947368421052633,,,,test,,f
60,1646737403330,08/03/2022 11:03:23,1646737403035,1,08/03/2022 12:03:23,73265,15,task-v1am,,20182906,BLIND,5973538,Intro Experiment: General explanations,complete,,,computer,Desktop or Laptop,Windows 10,Firefox 97.0,1536x864,1536x864,Part 1 completed,Basic Experiment_Dutch_Acc1,9,Part 1 completed,,Accuracy_level_1,,/task/320432/9/asset/yellow.png,,,,image-keyboard-response,59,127646,0.0-2.3-2.28,,,1,2310,,1,1,1.8265333333333333,,,test,,
61,1646737405659,08/03/2022 11:03:25,1646737405356,1,08/03/2022 12:03:25,73265,15,task-v1am,,20182906,BLIND,5973538,Intro Experiment: General explanations,complete,,,computer,Desktop or Laptop,Windows 10,Firefox 97.0,1536x864,1536x864,Part 1 completed,Basic Experiment_Dutch_Acc1,9,Part 1 completed,,Accuracy_level_1,568,/task/320432/9/asset/pear.jpg,,,j,image-keyboard-response,60,129967,0.0-2.3-0.29,,1,1,2310,,,0.9949152542372882,,,,test,,j
62,1646737407992,08/03/2022 11:03:27,1646737407700,1,08/03/2022 12:03:27,73265,15,task-v1am,,20182906,BLIND,5973538,Intro Experiment: General explanations,complete,,,computer,Desktop or Laptop,Windows 10,Firefox 97.0,1536x864,1536x864,Part 1 completed,Basic Experiment_Dutch_Acc1,9,Part 1 completed,,Accuracy_level_1,646,/task/320432/9/asset/yellow.png,,, ,image-keyboard-response,61,132311,0.0-2.3-2.29,,,1,2340,1,1,1,1.9042833333333333,,,test,, 
63,1646737410363,08/03/2022 11:03:30,1646737410054,1,08/03/2022 12:03:30,73265,15,task-v1am,,20182906,BLIND,5973538,Intro Experiment: General explanations,complete,,,computer,Desktop or Laptop,Windows 10,Firefox 97.0,1536x864,1536x864,Part 1 completed,Basic Experiment_Dutch_Acc1,9,Part 1 completed,,Accuracy_level_1,875,/task/320432/9/asset/glass.jpg,,,j,image-keyboard-response,62,134664,0.0-2.3-0.30,,1,1,2340,,,0.9950819672131148,,,,test,,j
64,1646737412728,08/03/2022 11:03:32,1646737412443,1,08/03/2022 12:03:32,73265,15,task-v1am,,20182906,BLIND,5973538,Intro Experiment: General explanations,complete,,,computer,Desktop or Laptop,Windows 10,Firefox 97.0,1536x864,1536x864,Part 1 completed,Basic Experiment_Dutch_Acc1,9,Part 1 completed,,Accuracy_level_1,421,/task/320432/9/asset/yellow.png,,, ,image-keyboard-response,63,137054,0.0-2.3-2.30,,,1,2370,1,1,1,1.9833333333333334,,,test,, 
65,1646737415148,08/03/2022 11:03:35,1646737414834,1,08/03/2022 12:03:34,73265,15,task-v1am,,20182906,BLIND,5973538,Intro Experiment: General explanations,complete,,,computer,Desktop or Laptop,Windows 10,Firefox 97.0,1536x864,1536x864,Part 1 completed,Basic Experiment_Dutch_Acc1,9,Part 1 completed,,Accuracy_level_1,642,/task/320432/9/asset/glass.jpg,,,j,image-keyboard-response,64,139444,0.0-2.3-0.31,,1,1,2370,,,0.9952380952380951,,,,test,,j
66,1646737417609,08/03/2022 11:03:37,1646737417242,1,08/03/2022 12:03:37,73265,15,task-v1am,,20182906,BLIND,5973538,Intro Experiment: General explanations,complete,,,computer,Desktop or Laptop,Windows 10,Firefox 97.0,1536x864,1536x864,Part 1 completed,Basic Experiment_Dutch_Acc1,9,Part 1 completed,,Accuracy_level_1,,/task/320432/9/asset/red.png,,,,image-keyboard-response,65,141854,0.0-2.3-2.31,,,1,2400,,1,1,2.0633166666666667,,,test,,
67,1646737419960,08/03/2022 11:03:39,1646737419657,1,08/03/2022 12:03:39,73265,15,task-v1am,,20182906,BLIND,5973538,Intro Experiment: General explanations,complete,,,computer,Desktop or Laptop,Windows 10,Firefox 97.0,1536x864,1536x864,Part 1 completed,Basic Experiment_Dutch_Acc1,9,Part 1 completed,,Accuracy_level_1,667,/task/320432/9/asset/elephant.jpg,,,f,image-keyboard-response,66,144269,0.0-2.4-0.32,,1,1,2400,,,0.9953846153846154,,,,test,,f
68,1646737422402,08/03/2022 11:03:42,1646737422106,1,08/03/2022 12:03:42,73265,15,task-v1am,,20182906,BLIND,5973538,Intro Experiment: General explanations,complete,,,computer,Desktop or Laptop,Windows 10,Firefox 97.0,1536x864,1536x864,Part 1 completed,Basic Experiment_Dutch_Acc1,9,Part 1 completed,,Accuracy_level_1,,/task/320432/9/asset/green.png,,,,image-keyboard-response,67,146717,0.0-2.4-2.32,,,1,2430,,1,1,2.1443833333333333,,,test,,
69,1646737424854,08/03/2022 11:03:44,1646737424556,1,08/03/2022 12:03:44,73265,15,task-v1am,,20182906,BLIND,5973538,Intro Experiment: General explanations,complete,,,computer,Desktop or Laptop,Windows 10,Firefox 97.0,1536x864,1536x864,Part 1 completed,Basic Experiment_Dutch_Acc1,9,Part 1 completed,,Accuracy_level_1,618,/task/320432/9/asset/glass.jpg,,,j,image-keyboard-response,68,149167,0.0-2.4-0.33,,1,1,2430,,,0.9955223880597015,,,,test,,j
70,1646737427322,08/03/2022 11:03:47,1646737427031,1,08/03/2022 12:03:47,73265,15,task-v1am,,20182906,BLIND,5973538,Intro Experiment: General explanations,complete,,,computer,Desktop or Laptop,Windows 10,Firefox 97.0,1536x864,1536x864,Part 1 completed,Basic Experiment_Dutch_Acc1,9,Part 1 completed,,Accuracy_level_1,,/task/320432/9/asset/white.png,,,,image-keyboard-response,69,151643,0.0-2.4-2.33,,,1,2460,,1,1,2.2264666666666666,,,test,,
71,1646737430146,08/03/2022 11:03:50,1646737429514,1,08/03/2022 12:03:49,73265,15,task-v1am,,20182906,BLIND,5973538,Intro Experiment: General explanations,complete,,,computer,Desktop or Laptop,Windows 10,Firefox 97.0,1536x864,1536x864,Part 1 completed,Basic Experiment_Dutch_Acc1,9,Part 1 completed,,Accuracy_level_1,718,/task/320432/9/asset/truck.jpg,,,f,image-keyboard-response,70,154125,0.0-2.4-0.34,,1,1,2460,,,0.9956521739130435,,,,test,,f
72,1646737432319,08/03/2022 11:03:52,1646737432015,1,08/03/2022 12:03:52,73265,15,task-v1am,,20182906,BLIND,5973538,Intro Experiment: General explanations,complete,,,computer,Desktop or Laptop,Windows 10,Firefox 97.0,1536x864,1536x864,Part 1 completed,Basic Experiment_Dutch_Acc1,9,Part 1 completed,,Accuracy_level_1,,/task/320432/9/asset/purple.png,,,,image-keyboard-response,71,156627,0.0-2.4-2.34,,,1,2490,,1,1,2.3095333333333334,,,test,,
73,1646737434804,08/03/2022 11:03:54,1646737434516,1,08/03/2022 12:03:54,73265,15,task-v1am,,20182906,BLIND,5973538,Intro Experiment: General explanations,complete,,,computer,Desktop or Laptop,Windows 10,Firefox 97.0,1536x864,1536x864,Part 1 completed,Basic Experiment_Dutch_Acc1,9,Part 1 completed,,Accuracy_level_1,640,/task/320432/9/asset/key.jpg,,,j,image-keyboard-response,72,159127,0.0-2.4-0.35,,1,1,2490,,,0.995774647887324,,,,test,,j
74,1646737437339,08/03/2022 11:03:57,1646737437054,1,08/03/2022 12:03:57,73265,15,task-v1am,,20182906,BLIND,5973538,Intro Experiment: General explanations,complete,,,computer,Desktop or Laptop,Windows 10,Firefox 97.0,1536x864,1536x864,Part 1 completed,Basic Experiment_Dutch_Acc1,9,Part 1 completed,,Accuracy_level_1,,/task/320432/9/asset/white.png,,,,image-keyboard-response,73,161665,0.0-2.4-2.35,,,1,2520,,1,1,2.3935166666666667,,,test,,
75,1646737439891,08/03/2022 11:03:59,1646737439588,1,08/03/2022 12:03:59,73265,15,task-v1am,,20182906,BLIND,5973538,Intro Experiment: General explanations,complete,,,computer,Desktop or Laptop,Windows 10,Firefox 97.0,1536x864,1536x864,Part 1 completed,Basic Experiment_Dutch_Acc1,9,Part 1 completed,,Accuracy_level_1,1028,/task/320432/9/asset/pear.jpg,,,j,image-keyboard-response,74,164200,0.0-2.4-0.36,,1,1,2520,,,0.995890410958904,,,,test,,j
76,1646737442438,08/03/2022 11:04:02,1646737442146,1,08/03/2022 12:04:02,73265,15,task-v1am,,20182906,BLIND,5973538,Intro Experiment: General explanations,complete,,,computer,Desktop or Laptop,Windows 10,Firefox 97.0,1536x864,1536x864,Part 1 completed,Basic Experiment_Dutch_Acc1,9,Part 1 completed,,Accuracy_level_1,,/task/320432/9/asset/purple.png,,,,image-keyboard-response,75,166757,0.0-2.4-2.36,,,1,2550,,1,1,2.4783833333333334,,,test,,
77,1646737444994,08/03/2022 11:04:04,1646737444701,1,08/03/2022 12:04:04,73265,15,task-v1am,,20182906,BLIND,5973538,Intro Experiment: General explanations,complete,,,computer,Desktop or Laptop,Windows 10,Firefox 97.0,1536x864,1536x864,Part 1 completed,Basic Experiment_Dutch_Acc1,9,Part 1 completed,,Accuracy_level_1,697,/task/320432/9/asset/truck.jpg,,,f,image-keyboard-response,76,169311,0.0-2.4-0.37,,1,1,2550,,,0.996,,,,test,,f
78,1646737447603,08/03/2022 11:04:07,1646737447287,1,08/03/2022 12:04:07,73265,15,task-v1am,,20182906,BLIND,5973538,Intro Experiment: General explanations,complete,,,computer,Desktop or Laptop,Windows 10,Firefox 97.0,1536x864,1536x864,Part 1 completed,Basic Experiment_Dutch_Acc1,9,Part 1 completed,,Accuracy_level_1,,/task/320432/9/asset/green.png,,,,image-keyboard-response,77,171899,0.0-2.4-2.37,,,1,2580,,1,1,2.5640666666666667,,,test,,
79,1646737450349,08/03/2022 11:04:10,1646737449870,1,08/03/2022 12:04:09,73265,15,task-v1am,,20182906,BLIND,5973538,Intro Experiment: General explanations,complete,,,computer,Desktop or Laptop,Windows 10,Firefox 97.0,1536x864,1536x864,Part 1 completed,Basic Experiment_Dutch_Acc1,9,Part 1 completed,,Accuracy_level_1,782,/task/320432/9/asset/elephant.jpg,,,f,image-keyboard-response,78,174482,0.0-2.4-0.38,,1,1,2580,,,0.9961038961038962,,,,test,,f
80,1646737452792,08/03/2022 11:04:12,1646737452490,1,08/03/2022 12:04:12,73265,15,task-v1am,,20182906,BLIND,5973538,Intro Experiment: General explanations,complete,,,computer,Desktop or Laptop,Windows 10,Firefox 97.0,1536x864,1536x864,Part 1 completed,Basic Experiment_Dutch_Acc1,9,Part 1 completed,,Accuracy_level_1,758,/task/320432/9/asset/green.png,,, ,image-keyboard-response,79,177101,0.0-2.4-2.38,,,1,2610,1,1,1,2.6507833333333335,,,test,, 
81,1646737455424,08/03/2022 11:04:15,1646737455119,1,08/03/2022 12:04:15,73265,15,task-v1am,,20182906,BLIND,5973538,Intro Experiment: General explanations,complete,,,computer,Desktop or Laptop,Windows 10,Firefox 97.0,1536x864,1536x864,Part 1 completed,Basic Experiment_Dutch_Acc1,9,Part 1 completed,,Accuracy_level_1,906,/task/320432/9/asset/plane.jpg,,,f,image-keyboard-response,80,179730,0.0-2.4-0.39,,1,1,2610,,,0.9962025316455697,,,,test,,f
82,1646737458065,08/03/2022 11:04:18,1646737457771,1,08/03/2022 12:04:17,73265,15,task-v1am,,20182906,BLIND,5973538,Intro Experiment: General explanations,complete,,,computer,Desktop or Laptop,Windows 10,Firefox 97.0,1536x864,1536x864,Part 1 completed,Basic Experiment_Dutch_Acc1,9,Part 1 completed,,Accuracy_level_1,630,/task/320432/9/asset/green.png,,, ,image-keyboard-response,81,182382,0.0-2.4-2.39,,,1,2640,1,1,1,2.7388,,,test,, 
83,1646737460736,08/03/2022 11:04:20,1646737460432,1,08/03/2022 12:04:20,73265,15,task-v1am,,20182906,BLIND,5973538,Intro Experiment: General explanations,complete,,,computer,Desktop or Laptop,Windows 10,Firefox 97.0,1536x864,1536x864,Part 1 completed,Basic Experiment_Dutch_Acc1,9,Part 1 completed,,Accuracy_level_1,853,/task/320432/9/asset/house.jpg,,,f,image-keyboard-response,82,185044,0.0-2.5-0.40,,1,1,2640,,,0.9962962962962963,,,,test,,f
84,1646737463417,08/03/2022 11:04:23,1646737463120,1,08/03/2022 12:04:23,73265,15,task-v1am,,20182906,BLIND,5973538,Intro Experiment: General explanations,complete,,,computer,Desktop or Laptop,Windows 10,Firefox 97.0,1536x864,1536x864,Part 1 completed,Basic Experiment_Dutch_Acc1,9,Part 1 completed,,Accuracy_level_1,648,/task/320432/9/asset/green.png,,, ,image-keyboard-response,83,187731,0.0-2.5-2.40,,,1,2670,1,1,1,2.82795,,,test,, 
85,1646737466107,08/03/2022 11:04:26,1646737465796,1,08/03/2022 12:04:25,73265,15,task-v1am,,20182906,BLIND,5973538,Intro Experiment: General explanations,complete,,,computer,Desktop or Laptop,Windows 10,Firefox 97.0,1536x864,1536x864,Part 1 completed,Basic Experiment_Dutch_Acc1,9,Part 1 completed,,Accuracy_level_1,735,/task/320432/9/asset/house.jpg,,,f,image-keyboard-response,84,190408,0.0-2.5-0.41,,1,1,2670,,,0.9963855421686746,,,,test,,f
86,1646737468793,08/03/2022 11:04:28,1646737468501,1,08/03/2022 12:04:28,73265,15,task-v1am,,20182906,BLIND,5973538,Intro Experiment: General explanations,complete,,,computer,Desktop or Laptop,Windows 10,Firefox 97.0,1536x864,1536x864,Part 1 completed,Basic Experiment_Dutch_Acc1,9,Part 1 completed,,Accuracy_level_1,653,/task/320432/9/asset/green.png,,, ,image-keyboard-response,85,193112,0.0-2.5-2.41,,,1,2700,1,1,1,2.9176333333333333,,,test,, 
87,1646737471506,08/03/2022 11:04:31,1646737471204,1,08/03/2022 12:04:31,73265,15,task-v1am,,20182906,BLIND,5973538,Intro Experiment: General explanations,complete,,,computer,Desktop or Laptop,Windows 10,Firefox 97.0,1536x864,1536x864,Part 1 completed,Basic Experiment_Dutch_Acc1,9,Part 1 completed,,Accuracy_level_1,830,/task/320432/9/asset/comb.jpg,,,j,image-keyboard-response,86,195815,0.0-2.5-0.42,,1,1,2700,,,0.9964705882352941,,,,test,,j
88,1646737474260,08/03/2022 11:04:34,1646737473947,1,08/03/2022 12:04:33,73265,15,task-v1am,,20182906,BLIND,5973538,Intro Experiment: General explanations,complete,,,computer,Desktop or Laptop,Windows 10,Firefox 97.0,1536x864,1536x864,Part 1 completed,Basic Experiment_Dutch_Acc1,9,Part 1 completed,,Accuracy_level_1,521,/task/320432/9/asset/green.png,,, ,image-keyboard-response,87,198557,0.0-2.5-2.42,,,1,2730,1,1,1,3.0084,,,test,, 
89,1646737476996,08/03/2022 11:04:36,1646737476695,1,08/03/2022 12:04:36,73265,15,task-v1am,,20182906,BLIND,5973538,Intro Experiment: General explanations,complete,,,computer,Desktop or Laptop,Windows 10,Firefox 97.0,1536x864,1536x864,Part 1 completed,Basic Experiment_Dutch_Acc1,9,Part 1 completed,,Accuracy_level_1,703,/task/320432/9/asset/plane.jpg,,,f,image-keyboard-response,88,201306,0.0-2.5-0.43,,1,1,2730,,,0.996551724137931,,,,test,,f
90,1646737479771,08/03/2022 11:04:39,1646737479473,1,08/03/2022 12:04:39,73265,15,task-v1am,,20182906,BLIND,5973538,Intro Experiment: General explanations,complete,,,computer,Desktop or Laptop,Windows 10,Firefox 97.0,1536x864,1536x864,Part 1 completed,Basic Experiment_Dutch_Acc1,9,Part 1 completed,,Accuracy_level_1,641,/task/320432/9/asset/green.png,,, ,image-keyboard-response,89,204084,0.0-2.5-2.43,,,1,2760,1,1,1,3.1005,,,test,, 
91,1646737482549,08/03/2022 11:04:42,1646737482241,1,08/03/2022 12:04:42,73265,15,task-v1am,,20182906,BLIND,5973538,Intro Experiment: General explanations,complete,,,computer,Desktop or Laptop,Windows 10,Firefox 97.0,1536x864,1536x864,Part 1 completed,Basic Experiment_Dutch_Acc1,9,Part 1 completed,,Accuracy_level_1,1035,/task/320432/9/asset/elephant.jpg,,,f,image-keyboard-response,90,206852,0.0-2.5-0.44,,1,1,2760,,,0.9966292134831461,,,,test,,f
92,1646737485335,08/03/2022 11:04:45,1646737485046,1,08/03/2022 12:04:45,73265,15,task-v1am,,20182906,BLIND,5973538,Intro Experiment: General explanations,complete,,,computer,Desktop or Laptop,Windows 10,Firefox 97.0,1536x864,1536x864,Part 1 completed,Basic Experiment_Dutch_Acc1,9,Part 1 completed,,Accuracy_level_1,,/task/320432/9/asset/red.png,,,,image-keyboard-response,91,209657,0.0-2.5-2.44,,,1,2790,,1,1,3.1933833333333332,,,test,,
93,1646737488166,08/03/2022 11:04:48,1646737487859,1,08/03/2022 12:04:47,73265,15,task-v1am,,20182906,BLIND,5973538,Intro Experiment: General explanations,complete,,,computer,Desktop or Laptop,Windows 10,Firefox 97.0,1536x864,1536x864,Part 1 completed,Basic Experiment_Dutch_Acc1,9,Part 1 completed,,Accuracy_level_1,1082,/task/320432/9/asset/pear.jpg,,,j,image-keyboard-response,92,212470,0.0-2.5-0.45,,1,1,2790,,,0.9967032967032967,,,,test,,j
