Event Index,UTC Timestamp,UTC Date,Local Timestamp,Local Timezone,Local Date,Experiment ID,Experiment Version,Tree Node Key,Repeat Key,Schedule ID,Participant Public ID,Participant Private ID,Participant Starting Group,Participant Status,Participant Completion Code,Participant External Session ID,Participant Device Type,Participant Device,Participant OS,Participant Browser,Participant Monitor Size,Participant Viewport Size,Checkpoint,Task Name,Task Version,checkpoint-yiku,checkpoint-gn26,randomiser-2vg5,Reaction Time,Stimulus,Key Press,Test Part,Correct Response,Trial Type,Trial Index,Time Elapsed,Internal Node ID,Correct,match,phase,correct_resp,prop_correct,accuracy_color_trial,minutes
1,1644954919406,15/02/2022 19:55:19,1644954919263,1,15/02/2022 20:55:19,73265,15,task-onds,,19475862,BLIND,5768964,Intro Experiment: General explanations,complete,,,computer,Desktop or Laptop,Mac OS 10.15.6,Safari 14.0.2,1440x900,1440x848,Part 1 completed,Pics_Only_Dutch,5,Part 1 completed,,Accuracy_level_1,53357,,,,,instructions,0,53360,0.0-0.0,,,,,,,
2,1644954919500,15/02/2022 19:55:19,1644954919369,1,15/02/2022 20:55:19,73265,15,task-onds,,19475862,BLIND,5768964,Intro Experiment: General explanations,complete,,,computer,Desktop or Laptop,Mac OS 10.15.6,Safari 14.0.2,1440x900,1440x848,Part 1 completed,Pics_Only_Dutch,5,Part 1 completed,,Accuracy_level_1,,"<div style=""font-size:60px;"">  </div>",,,,html-keyboard-response,1,53467,0.0-1.0-0.0,,,,,,,
3,1644954920968,15/02/2022 19:55:20,1644954920876,1,15/02/2022 20:55:20,73265,15,task-onds,,19475862,BLIND,5768964,Intro Experiment: General explanations,complete,,,computer,Desktop or Laptop,Mac OS 10.15.6,Safari 14.0.2,1440x900,1440x848,Part 1 completed,Pics_Only_Dutch,5,Part 1 completed,,Accuracy_level_1,,/task/320041/5/asset/key.png,,,j,image-keyboard-response,2,54973,0.0-1.0-1.0,,,test,,0,,0.0269
4,1644954921062,15/02/2022 19:55:21,1644954920981,1,15/02/2022 20:55:20,73265,15,task-onds,,19475862,BLIND,5768964,Intro Experiment: General explanations,complete,,,computer,Desktop or Laptop,Mac OS 10.15.6,Safari 14.0.2,1440x900,1440x848,Part 1 completed,Pics_Only_Dutch,5,Part 1 completed,,Accuracy_level_1,,"<div style=""font-size:60px;"">  </div>",,,,html-keyboard-response,3,55079,0.0-1.0-0.1,,,,,,,
5,1644954922552,15/02/2022 19:55:22,1644954922486,1,15/02/2022 20:55:22,73265,15,task-onds,,19475862,BLIND,5768964,Intro Experiment: General explanations,complete,,,computer,Desktop or Laptop,Mac OS 10.15.6,Safari 14.0.2,1440x900,1440x848,Part 1 completed,Pics_Only_Dutch,5,Part 1 completed,,Accuracy_level_1,,/task/320041/5/asset/key.png,,,j,image-keyboard-response,4,56583,0.0-1.0-1.1,,,test,,0,,0.053733333333333334
6,1644954922646,15/02/2022 19:55:22,1644954922592,1,15/02/2022 20:55:22,73265,15,task-onds,,19475862,BLIND,5768964,Intro Experiment: General explanations,complete,,,computer,Desktop or Laptop,Mac OS 10.15.6,Safari 14.0.2,1440x900,1440x848,Part 1 completed,Pics_Only_Dutch,5,Part 1 completed,,Accuracy_level_1,,"<div style=""font-size:60px;"">  </div>",,,,html-keyboard-response,5,56690,0.0-1.1-0.2,,,,,,,
7,1644954924163,15/02/2022 19:55:24,1644954924098,1,15/02/2022 20:55:24,73265,15,task-onds,,19475862,BLIND,5768964,Intro Experiment: General explanations,complete,,,computer,Desktop or Laptop,Mac OS 10.15.6,Safari 14.0.2,1440x900,1440x848,Part 1 completed,Pics_Only_Dutch,5,Part 1 completed,,Accuracy_level_1,684,/task/320041/5/asset/truck.jpg,,,f,image-keyboard-response,6,58196,0.0-1.1-1.2,,,test,,,,0.0806
8,1644954924256,15/02/2022 19:55:24,1644954924204,1,15/02/2022 20:55:24,73265,15,task-onds,,19475862,BLIND,5768964,Intro Experiment: General explanations,complete,,,computer,Desktop or Laptop,Mac OS 10.15.6,Safari 14.0.2,1440x900,1440x848,Part 1 completed,Pics_Only_Dutch,5,Part 1 completed,,Accuracy_level_1,,"<div style=""font-size:60px;"">  </div>",,,,html-keyboard-response,7,58301,0.0-1.1-0.3,,,,,,,
9,1644954925772,15/02/2022 19:55:25,1644954925710,1,15/02/2022 20:55:25,73265,15,task-onds,,19475862,BLIND,5768964,Intro Experiment: General explanations,complete,,,computer,Desktop or Laptop,Mac OS 10.15.6,Safari 14.0.2,1440x900,1440x848,Part 1 completed,Pics_Only_Dutch,5,Part 1 completed,,Accuracy_level_1,433,/task/320041/5/asset/truck.jpg,,,f,image-keyboard-response,8,59808,0.0-1.1-1.3,,,test,,0.7,,0.10746666666666667
10,1644954925866,15/02/2022 19:55:25,1644954925815,1,15/02/2022 20:55:25,73265,15,task-onds,,19475862,BLIND,5768964,Intro Experiment: General explanations,complete,,,computer,Desktop or Laptop,Mac OS 10.15.6,Safari 14.0.2,1440x900,1440x848,Part 1 completed,Pics_Only_Dutch,5,Part 1 completed,,Accuracy_level_1,,"<div style=""font-size:60px;"">  </div>",,,,html-keyboard-response,9,59913,0.0-1.2-0.4,,,,,,,
11,1644954927381,15/02/2022 19:55:27,1644954927322,1,15/02/2022 20:55:27,73265,15,task-onds,,19475862,BLIND,5768964,Intro Experiment: General explanations,complete,,,computer,Desktop or Laptop,Mac OS 10.15.6,Safari 14.0.2,1440x900,1440x848,Part 1 completed,Pics_Only_Dutch,5,Part 1 completed,,Accuracy_level_1,388,/task/320041/5/asset/truck.jpg,,,f,image-keyboard-response,10,61419,0.0-1.2-1.4,,,test,,0.525,,0.13433333333333333
12,1644954927475,15/02/2022 19:55:27,1644954927427,1,15/02/2022 20:55:27,73265,15,task-onds,,19475862,BLIND,5768964,Intro Experiment: General explanations,complete,,,computer,Desktop or Laptop,Mac OS 10.15.6,Safari 14.0.2,1440x900,1440x848,Part 1 completed,Pics_Only_Dutch,5,Part 1 completed,,Accuracy_level_1,,"<div style=""font-size:60px;"">  </div>",,,,html-keyboard-response,11,61524,0.0-1.2-0.5,,,,,,,
13,1644954928991,15/02/2022 19:55:28,1644954928932,1,15/02/2022 20:55:28,73265,15,task-onds,,19475862,BLIND,5768964,Intro Experiment: General explanations,complete,,,computer,Desktop or Laptop,Mac OS 10.15.6,Safari 14.0.2,1440x900,1440x848,Part 1 completed,Pics_Only_Dutch,5,Part 1 completed,,Accuracy_level_1,751,/task/320041/5/asset/plane.jpg,,,f,image-keyboard-response,12,63029,0.0-1.2-1.5,,,test,,0.4666666666666666,,0.16116666666666668
14,1644954929085,15/02/2022 19:55:29,1644954929037,1,15/02/2022 20:55:29,73265,15,task-onds,,19475862,BLIND,5768964,Intro Experiment: General explanations,complete,,,computer,Desktop or Laptop,Mac OS 10.15.6,Safari 14.0.2,1440x900,1440x848,Part 1 completed,Pics_Only_Dutch,5,Part 1 completed,,Accuracy_level_1,,"<div style=""font-size:60px;"">  </div>",,,,html-keyboard-response,13,63135,0.0-1.3-0.6,,,,,,,
15,1644954930632,15/02/2022 19:55:30,1644954930543,1,15/02/2022 20:55:30,73265,15,task-onds,,19475862,BLIND,5768964,Intro Experiment: General explanations,complete,,,computer,Desktop or Laptop,Mac OS 10.15.6,Safari 14.0.2,1440x900,1440x848,Part 1 completed,Pics_Only_Dutch,5,Part 1 completed,,Accuracy_level_1,582,/task/320041/5/asset/house.jpg,,,f,image-keyboard-response,14,64640,0.0-1.3-1.6,,,test,,0.4375,,0.18801666666666667
16,1644954930710,15/02/2022 19:55:30,1644954930647,1,15/02/2022 20:55:30,73265,15,task-onds,,19475862,BLIND,5768964,Intro Experiment: General explanations,complete,,,computer,Desktop or Laptop,Mac OS 10.15.6,Safari 14.0.2,1440x900,1440x848,Part 1 completed,Pics_Only_Dutch,5,Part 1 completed,,Accuracy_level_1,,"<div style=""font-size:60px;"">  </div>",,,,html-keyboard-response,15,64745,0.0-1.3-0.7,,,,,,,
17,1644954932220,15/02/2022 19:55:32,1644954932151,1,15/02/2022 20:55:32,73265,15,task-onds,,19475862,BLIND,5768964,Intro Experiment: General explanations,complete,,,computer,Desktop or Laptop,Mac OS 10.15.6,Safari 14.0.2,1440x900,1440x848,Part 1 completed,Pics_Only_Dutch,5,Part 1 completed,,Accuracy_level_1,947,/task/320041/5/asset/comb.jpg,,,j,image-keyboard-response,16,66248,0.0-1.3-1.7,,,test,,0.42000000000000004,,0.21481666666666666
1,1646742683281,08/03/2022 12:31:23,1646742683161,1,08/03/2022 13:31:23,73265,15,task-onds,,20186144,BLIND,5972970,Intro Experiment: General explanations,complete,,,computer,Desktop or Laptop,Mac OS 10.15.7,Safari 14.1.2,1440x900,1440x820,Part 1 completed,Pics_Only_Dutch,5,Part 1 completed,,Accuracy_level_1,13088,,,,,instructions,0,13093,0.0-0.0,,,,,,,
2,1646742683367,08/03/2022 12:31:23,1646742683273,1,08/03/2022 13:31:23,73265,15,task-onds,,20186144,BLIND,5972970,Intro Experiment: General explanations,complete,,,computer,Desktop or Laptop,Mac OS 10.15.7,Safari 14.1.2,1440x900,1440x820,Part 1 completed,Pics_Only_Dutch,5,Part 1 completed,,Accuracy_level_1,,"<div style=""font-size:60px;"">  </div>",,,,html-keyboard-response,1,13205,0.0-1.0-0.0,,,,,,,
3,1646742684826,08/03/2022 12:31:24,1646742684784,1,08/03/2022 13:31:24,73265,15,task-onds,,20186144,BLIND,5972970,Intro Experiment: General explanations,complete,,,computer,Desktop or Laptop,Mac OS 10.15.7,Safari 14.1.2,1440x900,1440x820,Part 1 completed,Pics_Only_Dutch,5,Part 1 completed,,Accuracy_level_1,663,/task/320041/5/asset/comb.jpg,,,j,image-keyboard-response,2,14716,0.0-1.0-1.0,,,test,,-0.175,,0.02705
4,1646742684938,08/03/2022 12:31:24,1646742684889,1,08/03/2022 13:31:24,73265,15,task-onds,,20186144,BLIND,5972970,Intro Experiment: General explanations,complete,,,computer,Desktop or Laptop,Mac OS 10.15.7,Safari 14.1.2,1440x900,1440x820,Part 1 completed,Pics_Only_Dutch,5,Part 1 completed,,Accuracy_level_1,,"<div style=""font-size:60px;"">  </div>",,,,html-keyboard-response,3,14822,0.0-1.0-0.1,,,,,,,
5,1646742686451,08/03/2022 12:31:26,1646742686395,1,08/03/2022 13:31:26,73265,15,task-onds,,20186144,BLIND,5972970,Intro Experiment: General explanations,complete,,,computer,Desktop or Laptop,Mac OS 10.15.7,Safari 14.1.2,1440x900,1440x820,Part 1 completed,Pics_Only_Dutch,5,Part 1 completed,,Accuracy_level_1,899,/task/320041/5/asset/truck.jpg,,,f,image-keyboard-response,4,16327,0.0-1.0-1.1,,,test,,-0.7,,0.0539
6,1646742686544,08/03/2022 12:31:26,1646742686501,1,08/03/2022 13:31:26,73265,15,task-onds,,20186144,BLIND,5972970,Intro Experiment: General explanations,complete,,,computer,Desktop or Laptop,Mac OS 10.15.7,Safari 14.1.2,1440x900,1440x820,Part 1 completed,Pics_Only_Dutch,5,Part 1 completed,,Accuracy_level_1,,"<div style=""font-size:60px;"">  </div>",,,,html-keyboard-response,5,16434,0.0-1.1-0.2,,,,,,,
7,1646742688053,08/03/2022 12:31:28,1646742688007,1,08/03/2022 13:31:28,73265,15,task-onds,,20186144,BLIND,5972970,Intro Experiment: General explanations,complete,,,computer,Desktop or Laptop,Mac OS 10.15.7,Safari 14.1.2,1440x900,1440x820,Part 1 completed,Pics_Only_Dutch,5,Part 1 completed,,Accuracy_level_1,,/task/320041/5/asset/key.png,,,j,image-keyboard-response,6,17940,0.0-1.1-1.2,,,test,,,,0.08076666666666667
8,1646742688498,08/03/2022 12:31:28,1646742688213,1,08/03/2022 13:31:28,73265,15,task-onds,,20186144,BLIND,5972970,Intro Experiment: General explanations,complete,,,computer,Desktop or Laptop,Mac OS 10.15.7,Safari 14.1.2,1440x900,1440x820,Part 1 completed,Pics_Only_Dutch,5,Part 1 completed,,Accuracy_level_1,,"<span style=""color:red;font-size:50px;font-weight: bold;"">FOUT!</span>",,,,html-keyboard-response,7,18146,0.0-1.1-2.2-0.2,,,,,,,
9,1646742688583,08/03/2022 12:31:28,1646742688318,1,08/03/2022 13:31:28,73265,15,task-onds,,20186144,BLIND,5972970,Intro Experiment: General explanations,complete,,,computer,Desktop or Laptop,Mac OS 10.15.7,Safari 14.1.2,1440x900,1440x820,Part 1 completed,Pics_Only_Dutch,5,Part 1 completed,,Accuracy_level_1,,"<div style=""font-size:60px;"">  </div>",,,,html-keyboard-response,8,18251,0.0-1.1-0.3,,,,,,,
10,1646742689860,08/03/2022 12:31:29,1646742689823,1,08/03/2022 13:31:29,73265,15,task-onds,,20186144,BLIND,5972970,Intro Experiment: General explanations,complete,,,computer,Desktop or Laptop,Mac OS 10.15.7,Safari 14.1.2,1440x900,1440x820,Part 1 completed,Pics_Only_Dutch,5,Part 1 completed,,Accuracy_level_1,1026,/task/320041/5/asset/plane.jpg,,,f,image-keyboard-response,9,19755,0.0-1.1-1.3,,,test,,0.4666666666666666,,0.11103333333333333
11,1646742690063,08/03/2022 12:31:30,1646742690029,1,08/03/2022 13:31:30,73265,15,task-onds,,20186144,BLIND,5972970,Intro Experiment: General explanations,complete,,,computer,Desktop or Laptop,Mac OS 10.15.7,Safari 14.1.2,1440x900,1440x820,Part 1 completed,Pics_Only_Dutch,5,Part 1 completed,,Accuracy_level_1,,"<span style=""color:red;font-size:50px;font-weight: bold;"">FOUT!</span>",,,,html-keyboard-response,10,19962,0.0-1.1-2.3-0.3,,,,,,,
12,1646742690162,08/03/2022 12:31:30,1646742690134,1,08/03/2022 13:31:30,73265,15,task-onds,,20186144,BLIND,5972970,Intro Experiment: General explanations,complete,,,computer,Desktop or Laptop,Mac OS 10.15.7,Safari 14.1.2,1440x900,1440x820,Part 1 completed,Pics_Only_Dutch,5,Part 1 completed,,Accuracy_level_1,,"<div style=""font-size:60px;"">  </div>",,,,html-keyboard-response,11,20067,0.0-1.2-0.4,,,,,,,
13,1646742691684,08/03/2022 12:31:31,1646742691641,1,08/03/2022 13:31:31,73265,15,task-onds,,20186144,BLIND,5972970,Intro Experiment: General explanations,complete,,,computer,Desktop or Laptop,Mac OS 10.15.7,Safari 14.1.2,1440x900,1440x820,Part 1 completed,Pics_Only_Dutch,5,Part 1 completed,,Accuracy_level_1,1433,/task/320041/5/asset/house.jpg,,,f,image-keyboard-response,12,21573,0.0-1.2-1.4,,,test,,0.35000000000000003,,0.14133333333333334
14,1646742691777,08/03/2022 12:31:31,1646742691746,1,08/03/2022 13:31:31,73265,15,task-onds,,20186144,BLIND,5972970,Intro Experiment: General explanations,complete,,,computer,Desktop or Laptop,Mac OS 10.15.7,Safari 14.1.2,1440x900,1440x820,Part 1 completed,Pics_Only_Dutch,5,Part 1 completed,,Accuracy_level_1,,"<div style=""font-size:60px;"">  </div>",,,,html-keyboard-response,13,21679,0.0-1.2-0.5,,,,,,,
15,1646742693301,08/03/2022 12:31:33,1646742693253,1,08/03/2022 13:31:33,73265,15,task-onds,,20186144,BLIND,5972970,Intro Experiment: General explanations,complete,,,computer,Desktop or Laptop,Mac OS 10.15.7,Safari 14.1.2,1440x900,1440x820,Part 1 completed,Pics_Only_Dutch,5,Part 1 completed,,Accuracy_level_1,551,/task/320041/5/asset/plane.jpg,,,f,image-keyboard-response,14,23185,0.0-1.2-1.5,,,test,,0.35,,0.1682
16,1646742693402,08/03/2022 12:31:33,1646742693362,1,08/03/2022 13:31:33,73265,15,task-onds,,20186144,BLIND,5972970,Intro Experiment: General explanations,complete,,,computer,Desktop or Laptop,Mac OS 10.15.7,Safari 14.1.2,1440x900,1440x820,Part 1 completed,Pics_Only_Dutch,5,Part 1 completed,,Accuracy_level_1,,"<div style=""font-size:60px;"">  </div>",,,,html-keyboard-response,15,23295,0.0-1.3-0.6,,,,,,,
17,1646742694918,08/03/2022 12:31:34,1646742694868,1,08/03/2022 13:31:34,73265,15,task-onds,,20186144,BLIND,5972970,Intro Experiment: General explanations,complete,,,computer,Desktop or Laptop,Mac OS 10.15.7,Safari 14.1.2,1440x900,1440x820,Part 1 completed,Pics_Only_Dutch,5,Part 1 completed,,Accuracy_level_1,842,/task/320041/5/asset/glass.jpg,,,j,image-keyboard-response,16,24800,0.0-1.3-1.6,,,test,,0.35,,0.19511666666666666
18,1646742695021,08/03/2022 12:31:35,1646742694973,1,08/03/2022 13:31:34,73265,15,task-onds,,20186144,BLIND,5972970,Intro Experiment: General explanations,complete,,,computer,Desktop or Laptop,Mac OS 10.15.7,Safari 14.1.2,1440x900,1440x820,Part 1 completed,Pics_Only_Dutch,5,Part 1 completed,,Accuracy_level_1,,"<div style=""font-size:60px;"">  </div>",,,,html-keyboard-response,17,24906,0.0-1.3-0.7,,,,,,,
19,1646742696521,08/03/2022 12:31:36,1646742696479,1,08/03/2022 13:31:36,73265,15,task-onds,,20186144,BLIND,5972970,Intro Experiment: General explanations,complete,,,computer,Desktop or Laptop,Mac OS 10.15.7,Safari 14.1.2,1440x900,1440x820,Part 1 completed,Pics_Only_Dutch,5,Part 1 completed,,Accuracy_level_1,1302,/task/320041/5/asset/pear.jpg,,,j,image-keyboard-response,18,26411,0.0-1.3-1.7,,,test,,0.35000000000000003,,0.22196666666666667
1,1646861470247,09/03/2022 21:31:10,1646861470358,1,09/03/2022 22:31:10,73265,15,task-onds,,20249750,BLIND,5973327,Intro Experiment: General explanations,complete,,,computer,Desktop or Laptop,Windows 10,Chrome 99.0.4844.51,1920x1080,1920x937,Part 1 completed,Pics_Only_Dutch,5,Part 1 completed,,Accuracy_level_1,7829.600000023842,,,,,instructions,0,7836,0.0-0.0,,,,,,,
2,1646861470348,09/03/2022 21:31:10,1646861470469,1,09/03/2022 22:31:10,73265,15,task-onds,,20249750,BLIND,5973327,Intro Experiment: General explanations,complete,,,computer,Desktop or Laptop,Windows 10,Chrome 99.0.4844.51,1920x1080,1920x937,Part 1 completed,Pics_Only_Dutch,5,Part 1 completed,,Accuracy_level_1,,"<div style=""font-size:60px;"">  </div>",,,,html-keyboard-response,1,7946,0.0-1.0-0.0,,,,,,,
3,1646861471813,09/03/2022 21:31:11,1646861471979,1,09/03/2022 22:31:11,73265,15,task-onds,,20249750,BLIND,5973327,Intro Experiment: General explanations,complete,,,computer,Desktop or Laptop,Windows 10,Chrome 99.0.4844.51,1920x1080,1920x937,Part 1 completed,Pics_Only_Dutch,5,Part 1 completed,,Accuracy_level_1,,/task/320041/5/asset/elephant.jpg,,,f,image-keyboard-response,2,9456,0.0-1.0-1.0,,,test,,0,,0.027016666666666668
4,1646861471917,09/03/2022 21:31:11,1646861472086,1,09/03/2022 22:31:12,73265,15,task-onds,,20249750,BLIND,5973327,Intro Experiment: General explanations,complete,,,computer,Desktop or Laptop,Windows 10,Chrome 99.0.4844.51,1920x1080,1920x937,Part 1 completed,Pics_Only_Dutch,5,Part 1 completed,,Accuracy_level_1,,"<div style=""font-size:60px;"">  </div>",,,,html-keyboard-response,3,9564,0.0-1.0-0.1,,,,,,,
5,1646861473414,09/03/2022 21:31:13,1646861473588,1,09/03/2022 22:31:13,73265,15,task-onds,,20249750,BLIND,5973327,Intro Experiment: General explanations,complete,,,computer,Desktop or Laptop,Windows 10,Chrome 99.0.4844.51,1920x1080,1920x937,Part 1 completed,Pics_Only_Dutch,5,Part 1 completed,,Accuracy_level_1,,/task/320041/5/asset/plane.jpg,,,f,image-keyboard-response,4,11066,0.0-1.0-1.1,,,test,,0,,0.05383333333333333
6,1646861473518,09/03/2022 21:31:13,1646861473695,1,09/03/2022 22:31:13,73265,15,task-onds,,20249750,BLIND,5973327,Intro Experiment: General explanations,complete,,,computer,Desktop or Laptop,Windows 10,Chrome 99.0.4844.51,1920x1080,1920x937,Part 1 completed,Pics_Only_Dutch,5,Part 1 completed,,Accuracy_level_1,,"<div style=""font-size:60px;"">  </div>",,,,html-keyboard-response,5,11173,0.0-1.1-0.2,,,,,,,
7,1646861475070,09/03/2022 21:31:15,1646861475199,1,09/03/2022 22:31:15,73265,15,task-onds,,20249750,BLIND,5973327,Intro Experiment: General explanations,complete,,,computer,Desktop or Laptop,Windows 10,Chrome 99.0.4844.51,1920x1080,1920x937,Part 1 completed,Pics_Only_Dutch,5,Part 1 completed,,Accuracy_level_1,904.1000000238419,/task/320041/5/asset/elephant.jpg,,,f,image-keyboard-response,6,12677,0.0-1.1-1.2,,,test,,,,0.08068333333333333
8,1646861475145,09/03/2022 21:31:15,1646861475305,1,09/03/2022 22:31:15,73265,15,task-onds,,20249750,BLIND,5973327,Intro Experiment: General explanations,complete,,,computer,Desktop or Laptop,Windows 10,Chrome 99.0.4844.51,1920x1080,1920x937,Part 1 completed,Pics_Only_Dutch,5,Part 1 completed,,Accuracy_level_1,,"<div style=""font-size:60px;"">  </div>",,,,html-keyboard-response,7,12783,0.0-1.1-0.3,,,,,,,
9,1646861476623,09/03/2022 21:31:16,1646861476809,1,09/03/2022 22:31:16,73265,15,task-onds,,20249750,BLIND,5973327,Intro Experiment: General explanations,complete,,,computer,Desktop or Laptop,Windows 10,Chrome 99.0.4844.51,1920x1080,1920x937,Part 1 completed,Pics_Only_Dutch,5,Part 1 completed,,Accuracy_level_1,823.2999999523163,/task/320041/5/asset/glass.jpg,,,j,image-keyboard-response,8,14286,0.0-1.1-1.3,,,test,,0.7,,0.10751666666666666
10,1646861476730,09/03/2022 21:31:16,1646861476916,1,09/03/2022 22:31:16,73265,15,task-onds,,20249750,BLIND,5973327,Intro Experiment: General explanations,complete,,,computer,Desktop or Laptop,Windows 10,Chrome 99.0.4844.51,1920x1080,1920x937,Part 1 completed,Pics_Only_Dutch,5,Part 1 completed,,Accuracy_level_1,,"<div style=""font-size:60px;"">  </div>",,,,html-keyboard-response,9,14394,0.0-1.2-0.4,,,,,,,
11,1646861478248,09/03/2022 21:31:18,1646861478433,1,09/03/2022 22:31:18,73265,15,task-onds,,20249750,BLIND,5973327,Intro Experiment: General explanations,complete,,,computer,Desktop or Laptop,Windows 10,Chrome 99.0.4844.51,1920x1080,1920x937,Part 1 completed,Pics_Only_Dutch,5,Part 1 completed,,Accuracy_level_1,,/task/320041/5/asset/key.png,,,j,image-keyboard-response,10,15911,0.0-1.2-1.4,,,test,,0.35,,0.13458333333333333
12,1646861478468,09/03/2022 21:31:18,1646861478647,1,09/03/2022 22:31:18,73265,15,task-onds,,20249750,BLIND,5973327,Intro Experiment: General explanations,complete,,,computer,Desktop or Laptop,Windows 10,Chrome 99.0.4844.51,1920x1080,1920x937,Part 1 completed,Pics_Only_Dutch,5,Part 1 completed,,Accuracy_level_1,,"<span style=""color:red;font-size:50px;font-weight: bold;"">FOUT!</span>",,,,html-keyboard-response,11,16125,0.0-1.2-2.4-0.4,,,,,,,
13,1646861478561,09/03/2022 21:31:18,1646861478754,1,09/03/2022 22:31:18,73265,15,task-onds,,20249750,BLIND,5973327,Intro Experiment: General explanations,complete,,,computer,Desktop or Laptop,Windows 10,Chrome 99.0.4844.51,1920x1080,1920x937,Part 1 completed,Pics_Only_Dutch,5,Part 1 completed,,Accuracy_level_1,,"<div style=""font-size:60px;"">  </div>",,,,html-keyboard-response,12,16232,0.0-1.2-0.5,,,,,,,
14,1646861480092,09/03/2022 21:31:20,1646861480271,1,09/03/2022 22:31:20,73265,15,task-onds,,20249750,BLIND,5973327,Intro Experiment: General explanations,complete,,,computer,Desktop or Laptop,Windows 10,Chrome 99.0.4844.51,1920x1080,1920x937,Part 1 completed,Pics_Only_Dutch,5,Part 1 completed,,Accuracy_level_1,1117.300000011921,/task/320041/5/asset/elephant.jpg,,,f,image-keyboard-response,13,17749,0.0-1.2-1.5,,,test,,0.3,,0.16521666666666668
15,1646861480186,09/03/2022 21:31:20,1646861480379,1,09/03/2022 22:31:20,73265,15,task-onds,,20249750,BLIND,5973327,Intro Experiment: General explanations,complete,,,computer,Desktop or Laptop,Windows 10,Chrome 99.0.4844.51,1920x1080,1920x937,Part 1 completed,Pics_Only_Dutch,5,Part 1 completed,,Accuracy_level_1,,"<div style=""font-size:60px;"">  </div>",,,,html-keyboard-response,14,17857,0.0-1.3-0.6,,,,,,,
16,1646861481710,09/03/2022 21:31:21,1646861481896,1,09/03/2022 22:31:21,73265,15,task-onds,,20249750,BLIND,5973327,Intro Experiment: General explanations,complete,,,computer,Desktop or Laptop,Windows 10,Chrome 99.0.4844.51,1920x1080,1920x937,Part 1 completed,Pics_Only_Dutch,5,Part 1 completed,,Accuracy_level_1,1012.8000000119209,/task/320041/5/asset/truck.jpg,,,f,image-keyboard-response,15,19374,0.0-1.3-1.6,,,test,,0.3111111111111111,,0.1923
17,1646861481820,09/03/2022 21:31:21,1646861482003,1,09/03/2022 22:31:22,73265,15,task-onds,,20249750,BLIND,5973327,Intro Experiment: General explanations,complete,,,computer,Desktop or Laptop,Windows 10,Chrome 99.0.4844.51,1920x1080,1920x937,Part 1 completed,Pics_Only_Dutch,5,Part 1 completed,,Accuracy_level_1,,"<div style=""font-size:60px;"">  </div>",,,,html-keyboard-response,16,19481,0.0-1.3-0.7,,,,,,,
18,1646861483325,09/03/2022 21:31:23,1646861483505,1,09/03/2022 22:31:23,73265,15,task-onds,,20249750,BLIND,5973327,Intro Experiment: General explanations,complete,,,computer,Desktop or Laptop,Windows 10,Chrome 99.0.4844.51,1920x1080,1920x937,Part 1 completed,Pics_Only_Dutch,5,Part 1 completed,,Accuracy_level_1,,/task/320041/5/asset/key.png,,,j,image-keyboard-response,17,20983,0.0-1.3-1.7,,,test,,0.2545454545454545,,0.21911666666666665
19,1646861483531,09/03/2022 21:31:23,1646861483719,1,09/03/2022 22:31:23,73265,15,task-onds,,20249750,BLIND,5973327,Intro Experiment: General explanations,complete,,,computer,Desktop or Laptop,Windows 10,Chrome 99.0.4844.51,1920x1080,1920x937,Part 1 completed,Pics_Only_Dutch,5,Part 1 completed,,Accuracy_level_1,,"<span style=""color:red;font-size:50px;font-weight: bold;"">FOUT!</span>",,,,html-keyboard-response,18,21197,0.0-1.3-2.7-0.7,,,,,,,
1,1646775903813,08/03/2022 21:45:03,1646775904260,1,08/03/2022 22:45:04,73265,15,task-onds,,20211652,BLIND,5974554,Intro Experiment: General explanations,complete,,,computer,Desktop or Laptop,Windows 10,Chrome 98.0.4758.102,1536x864,1536x792,Part 1 completed,Pics_Only_Dutch,5,Part 1 completed,,Accuracy_level_1,19522.39999985695,,,,,instructions,0,19530,0.0-0.0,,,,,,,
2,1646775903903,08/03/2022 21:45:03,1646775904404,1,08/03/2022 22:45:04,73265,15,task-onds,,20211652,BLIND,5974554,Intro Experiment: General explanations,complete,,,computer,Desktop or Laptop,Windows 10,Chrome 98.0.4758.102,1536x864,1536x792,Part 1 completed,Pics_Only_Dutch,5,Part 1 completed,,Accuracy_level_1,,"<div style=""font-size:60px;"">  </div>",,,,html-keyboard-response,1,19676,0.0-1.0-0.0,,,,,,,
3,1646775905376,08/03/2022 21:45:05,1646775905910,1,08/03/2022 22:45:05,73265,15,task-onds,,20211652,BLIND,5974554,Intro Experiment: General explanations,complete,,,computer,Desktop or Laptop,Windows 10,Chrome 98.0.4758.102,1536x864,1536x792,Part 1 completed,Pics_Only_Dutch,5,Part 1 completed,,Accuracy_level_1,953.7000000476837,/task/320041/5/asset/truck.jpg,,,f,image-keyboard-response,2,21183,0.0-1.0-1.0,,,test,,-0.175,,0.027533333333333333
4,1646775905485,08/03/2022 21:45:05,1646775906013,1,08/03/2022 22:45:06,73265,15,task-onds,,20211652,BLIND,5974554,Intro Experiment: General explanations,complete,,,computer,Desktop or Laptop,Windows 10,Chrome 98.0.4758.102,1536x864,1536x792,Part 1 completed,Pics_Only_Dutch,5,Part 1 completed,,Accuracy_level_1,,"<div style=""font-size:60px;"">  </div>",,,,html-keyboard-response,3,21286,0.0-1.0-0.1,,,,,,,
5,1646775906985,08/03/2022 21:45:06,1646775907519,1,08/03/2022 22:45:07,73265,15,task-onds,,20211652,BLIND,5974554,Intro Experiment: General explanations,complete,,,computer,Desktop or Laptop,Windows 10,Chrome 98.0.4758.102,1536x864,1536x792,Part 1 completed,Pics_Only_Dutch,5,Part 1 completed,,Accuracy_level_1,929,/task/320041/5/asset/comb.jpg,,,j,image-keyboard-response,4,22792,0.0-1.0-1.1,,,test,,-0.7,,0.05435
6,1646775907142,08/03/2022 21:45:07,1646775907630,1,08/03/2022 22:45:07,73265,15,task-onds,,20211652,BLIND,5974554,Intro Experiment: General explanations,complete,,,computer,Desktop or Laptop,Windows 10,Chrome 98.0.4758.102,1536x864,1536x792,Part 1 completed,Pics_Only_Dutch,5,Part 1 completed,,Accuracy_level_1,,"<div style=""font-size:60px;"">  </div>",,,,html-keyboard-response,5,22903,0.0-1.1-0.2,,,,,,,
7,1646775908597,08/03/2022 21:45:08,1646775909133,1,08/03/2022 22:45:09,73265,15,task-onds,,20211652,BLIND,5974554,Intro Experiment: General explanations,complete,,,computer,Desktop or Laptop,Windows 10,Chrome 98.0.4758.102,1536x864,1536x792,Part 1 completed,Pics_Only_Dutch,5,Part 1 completed,,Accuracy_level_1,770.8999998569489,/task/320041/5/asset/house.jpg,,,f,image-keyboard-response,6,24406,0.0-1.1-1.2,,,test,,,,0.08125
8,1646775908941,08/03/2022 21:45:08,1646775909237,1,08/03/2022 22:45:09,73265,15,task-onds,,20211652,BLIND,5974554,Intro Experiment: General explanations,complete,,,computer,Desktop or Laptop,Windows 10,Chrome 98.0.4758.102,1536x864,1536x792,Part 1 completed,Pics_Only_Dutch,5,Part 1 completed,,Accuracy_level_1,,"<div style=""font-size:60px;"">  </div>",,,,html-keyboard-response,7,24510,0.0-1.1-0.3,,,,,,,
9,1646775910214,08/03/2022 21:45:10,1646775910742,1,08/03/2022 22:45:10,73265,15,task-onds,,20211652,BLIND,5974554,Intro Experiment: General explanations,complete,,,computer,Desktop or Laptop,Windows 10,Chrome 98.0.4758.102,1536x864,1536x792,Part 1 completed,Pics_Only_Dutch,5,Part 1 completed,,Accuracy_level_1,508.09999990463257,/task/320041/5/asset/house.jpg,,,f,image-keyboard-response,8,26015,0.0-1.1-1.3,,,test,,1.4,,0.10806666666666667
10,1646775910331,08/03/2022 21:45:10,1646775910848,1,08/03/2022 22:45:10,73265,15,task-onds,,20211652,BLIND,5974554,Intro Experiment: General explanations,complete,,,computer,Desktop or Laptop,Windows 10,Chrome 98.0.4758.102,1536x864,1536x792,Part 1 completed,Pics_Only_Dutch,5,Part 1 completed,,Accuracy_level_1,,"<div style=""font-size:60px;"">  </div>",,,,html-keyboard-response,9,26120,0.0-1.2-0.4,,,,,,,
11,1646775911820,08/03/2022 21:45:11,1646775912353,1,08/03/2022 22:45:12,73265,15,task-onds,,20211652,BLIND,5974554,Intro Experiment: General explanations,complete,,,computer,Desktop or Laptop,Windows 10,Chrome 98.0.4758.102,1536x864,1536x792,Part 1 completed,Pics_Only_Dutch,5,Part 1 completed,,Accuracy_level_1,444.5,/task/320041/5/asset/pear.jpg,,,j,image-keyboard-response,10,27625,0.0-1.2-1.4,,,test,,0.875,,0.13491666666666666
12,1646775911919,08/03/2022 21:45:11,1646775912460,1,08/03/2022 22:45:12,73265,15,task-onds,,20211652,BLIND,5974554,Intro Experiment: General explanations,complete,,,computer,Desktop or Laptop,Windows 10,Chrome 98.0.4758.102,1536x864,1536x792,Part 1 completed,Pics_Only_Dutch,5,Part 1 completed,,Accuracy_level_1,,"<div style=""font-size:60px;"">  </div>",,,,html-keyboard-response,11,27733,0.0-1.2-0.5,,,,,,,
13,1646775913434,08/03/2022 21:45:13,1646775913968,1,08/03/2022 22:45:13,73265,15,task-onds,,20211652,BLIND,5974554,Intro Experiment: General explanations,complete,,,computer,Desktop or Laptop,Windows 10,Chrome 98.0.4758.102,1536x864,1536x792,Part 1 completed,Pics_Only_Dutch,5,Part 1 completed,,Accuracy_level_1,608.2999999523163,/task/320041/5/asset/elephant.jpg,,,f,image-keyboard-response,12,29241,0.0-1.2-1.5,,,test,,0.7000000000000001,,0.16183333333333333
14,1646775913543,08/03/2022 21:45:13,1646775914074,1,08/03/2022 22:45:14,73265,15,task-onds,,20211652,BLIND,5974554,Intro Experiment: General explanations,complete,,,computer,Desktop or Laptop,Windows 10,Chrome 98.0.4758.102,1536x864,1536x792,Part 1 completed,Pics_Only_Dutch,5,Part 1 completed,,Accuracy_level_1,,"<div style=""font-size:60px;"">  </div>",,,,html-keyboard-response,13,29347,0.0-1.3-0.6,,,,,,,
15,1646775915141,08/03/2022 21:45:15,1646775915579,1,08/03/2022 22:45:15,73265,15,task-onds,,20211652,BLIND,5974554,Intro Experiment: General explanations,complete,,,computer,Desktop or Laptop,Windows 10,Chrome 98.0.4758.102,1536x864,1536x792,Part 1 completed,Pics_Only_Dutch,5,Part 1 completed,,Accuracy_level_1,653.5,/task/320041/5/asset/comb.jpg,,,j,image-keyboard-response,14,30852,0.0-1.3-1.6,,,test,,0.6125,,0.18868333333333334
16,1646775915288,08/03/2022 21:45:15,1646775915683,1,08/03/2022 22:45:15,73265,15,task-onds,,20211652,BLIND,5974554,Intro Experiment: General explanations,complete,,,computer,Desktop or Laptop,Windows 10,Chrome 98.0.4758.102,1536x864,1536x792,Part 1 completed,Pics_Only_Dutch,5,Part 1 completed,,Accuracy_level_1,,"<div style=""font-size:60px;"">  </div>",,,,html-keyboard-response,15,30956,0.0-1.3-0.7,,,,,,,
17,1646775916648,08/03/2022 21:45:16,1646775917187,1,08/03/2022 22:45:17,73265,15,task-onds,,20211652,BLIND,5974554,Intro Experiment: General explanations,complete,,,computer,Desktop or Laptop,Windows 10,Chrome 98.0.4758.102,1536x864,1536x792,Part 1 completed,Pics_Only_Dutch,5,Part 1 completed,,Accuracy_level_1,626.2000000476837,/task/320041/5/asset/elephant.jpg,,,f,image-keyboard-response,16,32459,0.0-1.3-1.7,,,test,,0.5599999999999999,,0.21548333333333333
1,1646746906984,08/03/2022 13:41:46,1646746906894,1,08/03/2022 14:41:46,73265,15,task-onds,,20189216,BLIND,5974106,Intro Experiment: General explanations,complete,,,computer,Desktop or Laptop,Windows 10,Edge 99.0.1150.30,1280x720,1280x601,Part 1 completed,Pics_Only_Dutch,5,Part 1 completed,,Accuracy_level_1,28330.10000014305,,,,,instructions,0,28335,0.0-0.0,,,,,,,
2,1646746907082,08/03/2022 13:41:47,1646746907039,1,08/03/2022 14:41:47,73265,15,task-onds,,20189216,BLIND,5974106,Intro Experiment: General explanations,complete,,,computer,Desktop or Laptop,Windows 10,Edge 99.0.1150.30,1280x720,1280x601,Part 1 completed,Pics_Only_Dutch,5,Part 1 completed,,Accuracy_level_1,,"<div style=""font-size:60px;"">  </div>",,,,html-keyboard-response,1,28481,0.0-1.0-0.0,,,,,,,
3,1646746908567,08/03/2022 13:41:48,1646746908548,1,08/03/2022 14:41:48,73265,15,task-onds,,20189216,BLIND,5974106,Intro Experiment: General explanations,complete,,,computer,Desktop or Laptop,Windows 10,Edge 99.0.1150.30,1280x720,1280x601,Part 1 completed,Pics_Only_Dutch,5,Part 1 completed,,Accuracy_level_1,1412.5,/task/320041/5/asset/comb.jpg,,,j,image-keyboard-response,2,29990,0.0-1.0-1.0,,,test,,-0.175,,0.027583333333333335
4,1646746908689,08/03/2022 13:41:48,1646746908655,1,08/03/2022 14:41:48,73265,15,task-onds,,20189216,BLIND,5974106,Intro Experiment: General explanations,complete,,,computer,Desktop or Laptop,Windows 10,Edge 99.0.1150.30,1280x720,1280x601,Part 1 completed,Pics_Only_Dutch,5,Part 1 completed,,Accuracy_level_1,,"<div style=""font-size:60px;"">  </div>",,,,html-keyboard-response,3,30098,0.0-1.0-0.1,,,,,,,
5,1646746910192,08/03/2022 13:41:50,1646746910168,1,08/03/2022 14:41:50,73265,15,task-onds,,20189216,BLIND,5974106,Intro Experiment: General explanations,complete,,,computer,Desktop or Laptop,Windows 10,Edge 99.0.1150.30,1280x720,1280x601,Part 1 completed,Pics_Only_Dutch,5,Part 1 completed,,Accuracy_level_1,673.7000000476837,/task/320041/5/asset/truck.jpg,,,f,image-keyboard-response,4,31610,0.0-1.0-1.1,,,test,,-0.7,,0.05458333333333333
6,1646746910311,08/03/2022 13:41:50,1646746910284,1,08/03/2022 14:41:50,73265,15,task-onds,,20189216,BLIND,5974106,Intro Experiment: General explanations,complete,,,computer,Desktop or Laptop,Windows 10,Edge 99.0.1150.30,1280x720,1280x601,Part 1 completed,Pics_Only_Dutch,5,Part 1 completed,,Accuracy_level_1,,"<div style=""font-size:60px;"">  </div>",,,,html-keyboard-response,5,31727,0.0-1.1-0.2,,,,,,,
7,1646746911808,08/03/2022 13:41:51,1646746911789,1,08/03/2022 14:41:51,73265,15,task-onds,,20189216,BLIND,5974106,Intro Experiment: General explanations,complete,,,computer,Desktop or Laptop,Windows 10,Edge 99.0.1150.30,1280x720,1280x601,Part 1 completed,Pics_Only_Dutch,5,Part 1 completed,,Accuracy_level_1,666.7999999523163,/task/320041/5/asset/glass.jpg,,,j,image-keyboard-response,6,33232,0.0-1.1-1.2,,,test,,,,0.0816
8,1646746911902,08/03/2022 13:41:51,1646746911896,1,08/03/2022 14:41:51,73265,15,task-onds,,20189216,BLIND,5974106,Intro Experiment: General explanations,complete,,,computer,Desktop or Laptop,Windows 10,Edge 99.0.1150.30,1280x720,1280x601,Part 1 completed,Pics_Only_Dutch,5,Part 1 completed,,Accuracy_level_1,,"<div style=""font-size:60px;"">  </div>",,,,html-keyboard-response,7,33339,0.0-1.1-0.3,,,,,,,
9,1646746913434,08/03/2022 13:41:53,1646746913412,1,08/03/2022 14:41:53,73265,15,task-onds,,20189216,BLIND,5974106,Intro Experiment: General explanations,complete,,,computer,Desktop or Laptop,Windows 10,Edge 99.0.1150.30,1280x720,1280x601,Part 1 completed,Pics_Only_Dutch,5,Part 1 completed,,Accuracy_level_1,632.5,/task/320041/5/asset/house.jpg,,,f,image-keyboard-response,8,34855,0.0-1.1-1.3,,,test,,1.4,,0.10865
10,1646746913523,08/03/2022 13:41:53,1646746913521,1,08/03/2022 14:41:53,73265,15,task-onds,,20189216,BLIND,5974106,Intro Experiment: General explanations,complete,,,computer,Desktop or Laptop,Windows 10,Edge 99.0.1150.30,1280x720,1280x601,Part 1 completed,Pics_Only_Dutch,5,Part 1 completed,,Accuracy_level_1,,"<div style=""font-size:60px;"">  </div>",,,,html-keyboard-response,9,34964,0.0-1.2-0.4,,,,,,,
11,1646746915054,08/03/2022 13:41:55,1646746915035,1,08/03/2022 14:41:55,73265,15,task-onds,,20189216,BLIND,5974106,Intro Experiment: General explanations,complete,,,computer,Desktop or Laptop,Windows 10,Edge 99.0.1150.30,1280x720,1280x601,Part 1 completed,Pics_Only_Dutch,5,Part 1 completed,,Accuracy_level_1,470.2999999523163,/task/320041/5/asset/truck.jpg,,,f,image-keyboard-response,10,36477,0.0-1.2-1.4,,,test,,0.875,,0.1357
12,1646746915165,08/03/2022 13:41:55,1646746915142,1,08/03/2022 14:41:55,73265,15,task-onds,,20189216,BLIND,5974106,Intro Experiment: General explanations,complete,,,computer,Desktop or Laptop,Windows 10,Edge 99.0.1150.30,1280x720,1280x601,Part 1 completed,Pics_Only_Dutch,5,Part 1 completed,,Accuracy_level_1,,"<div style=""font-size:60px;"">  </div>",,,,html-keyboard-response,11,36585,0.0-1.2-0.5,,,,,,,
13,1646746916682,08/03/2022 13:41:56,1646746916656,1,08/03/2022 14:41:56,73265,15,task-onds,,20189216,BLIND,5974106,Intro Experiment: General explanations,complete,,,computer,Desktop or Laptop,Windows 10,Edge 99.0.1150.30,1280x720,1280x601,Part 1 completed,Pics_Only_Dutch,5,Part 1 completed,,Accuracy_level_1,481.39999985694885,/task/320041/5/asset/comb.jpg,,,j,image-keyboard-response,12,38099,0.0-1.2-1.5,,,test,,0.7000000000000001,,0.16271666666666668
14,1646746916775,08/03/2022 13:41:56,1646746916763,1,08/03/2022 14:41:56,73265,15,task-onds,,20189216,BLIND,5974106,Intro Experiment: General explanations,complete,,,computer,Desktop or Laptop,Windows 10,Edge 99.0.1150.30,1280x720,1280x601,Part 1 completed,Pics_Only_Dutch,5,Part 1 completed,,Accuracy_level_1,,"<div style=""font-size:60px;"">  </div>",,,,html-keyboard-response,13,38205,0.0-1.3-0.6,,,,,,,
15,1646746918296,08/03/2022 13:41:58,1646746918269,1,08/03/2022 14:41:58,73265,15,task-onds,,20189216,BLIND,5974106,Intro Experiment: General explanations,complete,,,computer,Desktop or Laptop,Windows 10,Edge 99.0.1150.30,1280x720,1280x601,Part 1 completed,Pics_Only_Dutch,5,Part 1 completed,,Accuracy_level_1,636.8000001907349,/task/320041/5/asset/elephant.jpg,,,f,image-keyboard-response,14,39712,0.0-1.3-1.6,,,test,,0.6125,,0.1896
16,1646746918389,08/03/2022 13:41:58,1646746918377,1,08/03/2022 14:41:58,73265,15,task-onds,,20189216,BLIND,5974106,Intro Experiment: General explanations,complete,,,computer,Desktop or Laptop,Windows 10,Edge 99.0.1150.30,1280x720,1280x601,Part 1 completed,Pics_Only_Dutch,5,Part 1 completed,,Accuracy_level_1,,"<div style=""font-size:60px;"">  </div>",,,,html-keyboard-response,15,39820,0.0-1.3-0.7,,,,,,,
17,1646746919893,08/03/2022 13:41:59,1646746919883,1,08/03/2022 14:41:59,73265,15,task-onds,,20189216,BLIND,5974106,Intro Experiment: General explanations,complete,,,computer,Desktop or Laptop,Windows 10,Edge 99.0.1150.30,1280x720,1280x601,Part 1 completed,Pics_Only_Dutch,5,Part 1 completed,,Accuracy_level_1,589.8999998569489,/task/320041/5/asset/comb.jpg,,,j,image-keyboard-response,16,41326,0.0-1.3-1.7,,,test,,0.5599999999999999,,0.2165
1,1646742495521,08/03/2022 12:28:15,1646742509074,1,08/03/2022 13:28:29,73265,15,task-onds,,20185981,BLIND,5971960,Intro Experiment: General explanations,complete,,,computer,Desktop or Laptop,Windows 10,Edge 98.0.1108.56,1280x720,1280x601,Part 1 completed,Pics_Only_Dutch,5,Part 1 completed,,Accuracy_level_1,54912.40000009537,,,,,instructions,0,54915,0.0-0.0,,,,,,,
2,1646742495625,08/03/2022 12:28:15,1646742509186,1,08/03/2022 13:28:29,73265,15,task-onds,,20185981,BLIND,5971960,Intro Experiment: General explanations,complete,,,computer,Desktop or Laptop,Windows 10,Edge 98.0.1108.56,1280x720,1280x601,Part 1 completed,Pics_Only_Dutch,5,Part 1 completed,,Accuracy_level_1,,"<div style=""font-size:60px;"">  </div>",,,,html-keyboard-response,1,55028,0.0-1.0-0.0,,,,,,,
3,1646742497100,08/03/2022 12:28:17,1646742510691,1,08/03/2022 13:28:30,73265,15,task-onds,,20185981,BLIND,5971960,Intro Experiment: General explanations,complete,,,computer,Desktop or Laptop,Windows 10,Edge 98.0.1108.56,1280x720,1280x601,Part 1 completed,Pics_Only_Dutch,5,Part 1 completed,,Accuracy_level_1,,/task/320041/5/asset/plane.jpg,,,f,image-keyboard-response,2,56532,0.0-1.0-1.0,,,test,,0,,0.02695
4,1646742497204,08/03/2022 12:28:17,1646742510796,1,08/03/2022 13:28:30,73265,15,task-onds,,20185981,BLIND,5971960,Intro Experiment: General explanations,complete,,,computer,Desktop or Laptop,Windows 10,Edge 98.0.1108.56,1280x720,1280x601,Part 1 completed,Pics_Only_Dutch,5,Part 1 completed,,Accuracy_level_1,,"<div style=""font-size:60px;"">  </div>",,,,html-keyboard-response,3,56637,0.0-1.0-0.1,,,,,,,
5,1646742498720,08/03/2022 12:28:18,1646742512300,1,08/03/2022 13:28:32,73265,15,task-onds,,20185981,BLIND,5971960,Intro Experiment: General explanations,complete,,,computer,Desktop or Laptop,Windows 10,Edge 98.0.1108.56,1280x720,1280x601,Part 1 completed,Pics_Only_Dutch,5,Part 1 completed,,Accuracy_level_1,,/task/320041/5/asset/house.jpg,,,f,image-keyboard-response,4,58141,0.0-1.0-1.1,,,test,,0,,0.053766666666666664
6,1646742498819,08/03/2022 12:28:18,1646742512404,1,08/03/2022 13:28:32,73265,15,task-onds,,20185981,BLIND,5971960,Intro Experiment: General explanations,complete,,,computer,Desktop or Laptop,Windows 10,Edge 98.0.1108.56,1280x720,1280x601,Part 1 completed,Pics_Only_Dutch,5,Part 1 completed,,Accuracy_level_1,,"<div style=""font-size:60px;"">  </div>",,,,html-keyboard-response,5,58246,0.0-1.1-0.2,,,,,,,
7,1646742500319,08/03/2022 12:28:20,1646742513907,1,08/03/2022 13:28:33,73265,15,task-onds,,20185981,BLIND,5971960,Intro Experiment: General explanations,complete,,,computer,Desktop or Laptop,Windows 10,Edge 98.0.1108.56,1280x720,1280x601,Part 1 completed,Pics_Only_Dutch,5,Part 1 completed,,Accuracy_level_1,1166.7000000476837,/task/320041/5/asset/truck.jpg,,,f,image-keyboard-response,6,59749,0.0-1.1-1.2,,,test,,,,0.08055
8,1646742500409,08/03/2022 12:28:20,1646742514011,1,08/03/2022 13:28:34,73265,15,task-onds,,20185981,BLIND,5971960,Intro Experiment: General explanations,complete,,,computer,Desktop or Laptop,Windows 10,Edge 98.0.1108.56,1280x720,1280x601,Part 1 completed,Pics_Only_Dutch,5,Part 1 completed,,Accuracy_level_1,,"<div style=""font-size:60px;"">  </div>",,,,html-keyboard-response,7,59853,0.0-1.1-0.3,,,,,,,
9,1646742501897,08/03/2022 12:28:21,1646742515515,1,08/03/2022 13:28:35,73265,15,task-onds,,20185981,BLIND,5971960,Intro Experiment: General explanations,complete,,,computer,Desktop or Laptop,Windows 10,Edge 98.0.1108.56,1280x720,1280x601,Part 1 completed,Pics_Only_Dutch,5,Part 1 completed,,Accuracy_level_1,959.0999999046326,/task/320041/5/asset/glass.jpg,,,j,image-keyboard-response,8,61356,0.0-1.1-1.3,,,test,,0.7,,0.10735
10,1646742502007,08/03/2022 12:28:22,1646742515619,1,08/03/2022 13:28:35,73265,15,task-onds,,20185981,BLIND,5971960,Intro Experiment: General explanations,complete,,,computer,Desktop or Laptop,Windows 10,Edge 98.0.1108.56,1280x720,1280x601,Part 1 completed,Pics_Only_Dutch,5,Part 1 completed,,Accuracy_level_1,,"<div style=""font-size:60px;"">  </div>",,,,html-keyboard-response,9,61461,0.0-1.2-0.4,,,,,,,
11,1646742503836,08/03/2022 12:28:23,1646742517123,1,08/03/2022 13:28:37,73265,15,task-onds,,20185981,BLIND,5971960,Intro Experiment: General explanations,complete,,,computer,Desktop or Laptop,Windows 10,Edge 98.0.1108.56,1280x720,1280x601,Part 1 completed,Pics_Only_Dutch,5,Part 1 completed,,Accuracy_level_1,590.5,/task/320041/5/asset/plane.jpg,,,f,image-keyboard-response,10,62964,0.0-1.2-1.4,,,test,,0.525,,0.13415
12,1646742504122,08/03/2022 12:28:24,1646742517227,1,08/03/2022 13:28:37,73265,15,task-onds,,20185981,BLIND,5971960,Intro Experiment: General explanations,complete,,,computer,Desktop or Laptop,Windows 10,Edge 98.0.1108.56,1280x720,1280x601,Part 1 completed,Pics_Only_Dutch,5,Part 1 completed,,Accuracy_level_1,,"<div style=""font-size:60px;"">  </div>",,,,html-keyboard-response,11,63069,0.0-1.2-0.5,,,,,,,
13,1646742505122,08/03/2022 12:28:25,1646742518729,1,08/03/2022 13:28:38,73265,15,task-onds,,20185981,BLIND,5971960,Intro Experiment: General explanations,complete,,,computer,Desktop or Laptop,Windows 10,Edge 98.0.1108.56,1280x720,1280x601,Part 1 completed,Pics_Only_Dutch,5,Part 1 completed,,Accuracy_level_1,519.8999998569489,/task/320041/5/asset/truck.jpg,,,f,image-keyboard-response,12,64571,0.0-1.2-1.5,,,test,,0.4666666666666666,,0.16091666666666668
14,1646742505231,08/03/2022 12:28:25,1646742518834,1,08/03/2022 13:28:38,73265,15,task-onds,,20185981,BLIND,5971960,Intro Experiment: General explanations,complete,,,computer,Desktop or Laptop,Windows 10,Edge 98.0.1108.56,1280x720,1280x601,Part 1 completed,Pics_Only_Dutch,5,Part 1 completed,,Accuracy_level_1,,"<div style=""font-size:60px;"">  </div>",,,,html-keyboard-response,13,64676,0.0-1.3-0.6,,,,,,,
15,1646742506736,08/03/2022 12:28:26,1646742520338,1,08/03/2022 13:28:40,73265,15,task-onds,,20185981,BLIND,5971960,Intro Experiment: General explanations,complete,,,computer,Desktop or Laptop,Windows 10,Edge 98.0.1108.56,1280x720,1280x601,Part 1 completed,Pics_Only_Dutch,5,Part 1 completed,,Accuracy_level_1,554.4000000953674,/task/320041/5/asset/glass.jpg,,,j,image-keyboard-response,14,66180,0.0-1.3-1.6,,,test,,0.4375,,0.18773333333333334
16,1646742506835,08/03/2022 12:28:26,1646742520441,1,08/03/2022 13:28:40,73265,15,task-onds,,20185981,BLIND,5971960,Intro Experiment: General explanations,complete,,,computer,Desktop or Laptop,Windows 10,Edge 98.0.1108.56,1280x720,1280x601,Part 1 completed,Pics_Only_Dutch,5,Part 1 completed,,Accuracy_level_1,,"<div style=""font-size:60px;"">  </div>",,,,html-keyboard-response,15,66283,0.0-1.3-0.7,,,,,,,
17,1646742508454,08/03/2022 12:28:28,1646742521944,1,08/03/2022 13:28:41,73265,15,task-onds,,20185981,BLIND,5971960,Intro Experiment: General explanations,complete,,,computer,Desktop or Laptop,Windows 10,Edge 98.0.1108.56,1280x720,1280x601,Part 1 completed,Pics_Only_Dutch,5,Part 1 completed,,Accuracy_level_1,,/task/320041/5/asset/key.png,,,j,image-keyboard-response,16,67786,0.0-1.3-1.7,,,test,,0.35,,0.2145
18,1646742508849,08/03/2022 12:28:28,1646742522147,1,08/03/2022 13:28:42,73265,15,task-onds,,20185981,BLIND,5971960,Intro Experiment: General explanations,complete,,,computer,Desktop or Laptop,Windows 10,Edge 98.0.1108.56,1280x720,1280x601,Part 1 completed,Pics_Only_Dutch,5,Part 1 completed,,Accuracy_level_1,,"<span style=""color:red;font-size:50px;font-weight: bold;"">FOUT!</span>",,,,html-keyboard-response,17,67989,0.0-1.3-2.7-0.7,,,,,,,
1,1646739005085,08/03/2022 11:30:05,1646738998814,1,08/03/2022 12:29:58,73265,15,task-onds,,20183802,BLIND,5973055,Intro Experiment: General explanations,complete,,,computer,Desktop or Laptop,Mac OS 10.15.7,Chrome 98.0.4758.102,1440x900,1440x821,Part 1 completed,Pics_Only_Dutch,5,Part 1 completed,,Accuracy_level_1,212799.20000004768,,,,,instructions,0,212809,0.0-0.0,,,,,,,
2,1646739005174,08/03/2022 11:30:05,1646738998932,1,08/03/2022 12:29:58,73265,15,task-onds,,20183802,BLIND,5973055,Intro Experiment: General explanations,complete,,,computer,Desktop or Laptop,Mac OS 10.15.7,Chrome 98.0.4758.102,1440x900,1440x821,Part 1 completed,Pics_Only_Dutch,5,Part 1 completed,,Accuracy_level_1,,"<div style=""font-size:60px;"">  </div>",,,,html-keyboard-response,1,212927,0.0-1.0-0.0,,,,,,,
3,1646739006501,08/03/2022 11:30:06,1646739000439,1,08/03/2022 12:30:00,73265,15,task-onds,,20183802,BLIND,5973055,Intro Experiment: General explanations,complete,,,computer,Desktop or Laptop,Mac OS 10.15.7,Chrome 98.0.4758.102,1440x900,1440x821,Part 1 completed,Pics_Only_Dutch,5,Part 1 completed,,Accuracy_level_1,,/task/320041/5/asset/pear.jpg,,,j,image-keyboard-response,2,214433,0.0-1.0-1.0,,,test,,0,,0.027083333333333334
4,1646739006579,08/03/2022 11:30:06,1646739000542,1,08/03/2022 12:30:00,73265,15,task-onds,,20183802,BLIND,5973055,Intro Experiment: General explanations,complete,,,computer,Desktop or Laptop,Mac OS 10.15.7,Chrome 98.0.4758.102,1440x900,1440x821,Part 1 completed,Pics_Only_Dutch,5,Part 1 completed,,Accuracy_level_1,,"<div style=""font-size:60px;"">  </div>",,,,html-keyboard-response,3,214537,0.0-1.0-0.1,,,,,,,
5,1646739008096,08/03/2022 11:30:08,1646739002047,1,08/03/2022 12:30:02,73265,15,task-onds,,20183802,BLIND,5973055,Intro Experiment: General explanations,complete,,,computer,Desktop or Laptop,Mac OS 10.15.7,Chrome 98.0.4758.102,1440x900,1440x821,Part 1 completed,Pics_Only_Dutch,5,Part 1 completed,,Accuracy_level_1,897.2000000476837,/task/320041/5/asset/plane.jpg,,,f,image-keyboard-response,4,216042,0.0-1.0-1.1,,,test,,-0.35,,0.05388333333333333
6,1646739008204,08/03/2022 11:30:08,1646739002152,1,08/03/2022 12:30:02,73265,15,task-onds,,20183802,BLIND,5973055,Intro Experiment: General explanations,complete,,,computer,Desktop or Laptop,Mac OS 10.15.7,Chrome 98.0.4758.102,1440x900,1440x821,Part 1 completed,Pics_Only_Dutch,5,Part 1 completed,,Accuracy_level_1,,"<div style=""font-size:60px;"">  </div>",,,,html-keyboard-response,5,216147,0.0-1.1-0.2,,,,,,,
7,1646739009693,08/03/2022 11:30:09,1646739003656,1,08/03/2022 12:30:03,73265,15,task-onds,,20183802,BLIND,5973055,Intro Experiment: General explanations,complete,,,computer,Desktop or Laptop,Mac OS 10.15.7,Chrome 98.0.4758.102,1440x900,1440x821,Part 1 completed,Pics_Only_Dutch,5,Part 1 completed,,Accuracy_level_1,733.1000000238419,/task/320041/5/asset/house.jpg,,,f,image-keyboard-response,6,217651,0.0-1.1-1.2,,,test,,,,0.0807
8,1646739009802,08/03/2022 11:30:09,1646739003758,1,08/03/2022 12:30:03,73265,15,task-onds,,20183802,BLIND,5973055,Intro Experiment: General explanations,complete,,,computer,Desktop or Laptop,Mac OS 10.15.7,Chrome 98.0.4758.102,1440x900,1440x821,Part 1 completed,Pics_Only_Dutch,5,Part 1 completed,,Accuracy_level_1,,"<div style=""font-size:60px;"">  </div>",,,,html-keyboard-response,7,217753,0.0-1.1-0.3,,,,,,,
9,1646739011314,08/03/2022 11:30:11,1646739005264,1,08/03/2022 12:30:05,73265,15,task-onds,,20183802,BLIND,5973055,Intro Experiment: General explanations,complete,,,computer,Desktop or Laptop,Mac OS 10.15.7,Chrome 98.0.4758.102,1440x900,1440x821,Part 1 completed,Pics_Only_Dutch,5,Part 1 completed,,Accuracy_level_1,816.8999999761581,/task/320041/5/asset/comb.jpg,,,j,image-keyboard-response,8,219259,0.0-1.1-1.3,,,test,,1.05,,0.1075
10,1646739011407,08/03/2022 11:30:11,1646739005366,1,08/03/2022 12:30:05,73265,15,task-onds,,20183802,BLIND,5973055,Intro Experiment: General explanations,complete,,,computer,Desktop or Laptop,Mac OS 10.15.7,Chrome 98.0.4758.102,1440x900,1440x821,Part 1 completed,Pics_Only_Dutch,5,Part 1 completed,,Accuracy_level_1,,"<div style=""font-size:60px;"">  </div>",,,,html-keyboard-response,9,219361,0.0-1.2-0.4,,,,,,,
11,1646739012913,08/03/2022 11:30:12,1646739006872,1,08/03/2022 12:30:06,73265,15,task-onds,,20183802,BLIND,5973055,Intro Experiment: General explanations,complete,,,computer,Desktop or Laptop,Mac OS 10.15.7,Chrome 98.0.4758.102,1440x900,1440x821,Part 1 completed,Pics_Only_Dutch,5,Part 1 completed,,Accuracy_level_1,717.7999999523163,/task/320041/5/asset/elephant.jpg,,,f,image-keyboard-response,10,220867,0.0-1.2-1.4,,,test,,0.7,,0.1343
12,1646739013017,08/03/2022 11:30:13,1646739006978,1,08/03/2022 12:30:06,73265,15,task-onds,,20183802,BLIND,5973055,Intro Experiment: General explanations,complete,,,computer,Desktop or Laptop,Mac OS 10.15.7,Chrome 98.0.4758.102,1440x900,1440x821,Part 1 completed,Pics_Only_Dutch,5,Part 1 completed,,Accuracy_level_1,,"<div style=""font-size:60px;"">  </div>",,,,html-keyboard-response,11,220973,0.0-1.2-0.5,,,,,,,
13,1646739014534,08/03/2022 11:30:14,1646739008484,1,08/03/2022 12:30:08,73265,15,task-onds,,20183802,BLIND,5973055,Intro Experiment: General explanations,complete,,,computer,Desktop or Laptop,Mac OS 10.15.7,Chrome 98.0.4758.102,1440x900,1440x821,Part 1 completed,Pics_Only_Dutch,5,Part 1 completed,,Accuracy_level_1,476.8000000715256,/task/320041/5/asset/elephant.jpg,,,f,image-keyboard-response,12,222479,0.0-1.2-1.5,,,test,,0.5833333333333334,,0.16116666666666668
14,1646739014643,08/03/2022 11:30:14,1646739008588,1,08/03/2022 12:30:08,73265,15,task-onds,,20183802,BLIND,5973055,Intro Experiment: General explanations,complete,,,computer,Desktop or Laptop,Mac OS 10.15.7,Chrome 98.0.4758.102,1440x900,1440x821,Part 1 completed,Pics_Only_Dutch,5,Part 1 completed,,Accuracy_level_1,,"<div style=""font-size:60px;"">  </div>",,,,html-keyboard-response,13,222583,0.0-1.3-0.6,,,,,,,
15,1646739016135,08/03/2022 11:30:16,1646739010094,1,08/03/2022 12:30:10,73265,15,task-onds,,20183802,BLIND,5973055,Intro Experiment: General explanations,complete,,,computer,Desktop or Laptop,Mac OS 10.15.7,Chrome 98.0.4758.102,1440x900,1440x821,Part 1 completed,Pics_Only_Dutch,5,Part 1 completed,,Accuracy_level_1,462.10000002384186,/task/320041/5/asset/house.jpg,,,f,image-keyboard-response,14,224088,0.0-1.3-1.6,,,test,,0.525,,0.188
16,1646739016257,08/03/2022 11:30:16,1646739010196,1,08/03/2022 12:30:10,73265,15,task-onds,,20183802,BLIND,5973055,Intro Experiment: General explanations,complete,,,computer,Desktop or Laptop,Mac OS 10.15.7,Chrome 98.0.4758.102,1440x900,1440x821,Part 1 completed,Pics_Only_Dutch,5,Part 1 completed,,Accuracy_level_1,,"<div style=""font-size:60px;"">  </div>",,,,html-keyboard-response,15,224191,0.0-1.3-0.7,,,,,,,
17,1646739018112,08/03/2022 11:30:18,1646739011699,1,08/03/2022 12:30:11,73265,15,task-onds,,20183802,BLIND,5973055,Intro Experiment: General explanations,complete,,,computer,Desktop or Laptop,Mac OS 10.15.7,Chrome 98.0.4758.102,1440x900,1440x821,Part 1 completed,Pics_Only_Dutch,5,Part 1 completed,,Accuracy_level_1,875.6999999284744,/task/320041/5/asset/pear.jpg,,,j,image-keyboard-response,16,225694,0.0-1.3-1.7,,,test,,0.49000000000000005,,0.21475
1,1646737119661,08/03/2022 10:58:39,1646737126171,1,08/03/2022 11:58:46,73265,15,task-onds,,20182675,BLIND,5974335,Intro Experiment: General explanations,complete,,,computer,Desktop or Laptop,Windows 10,Chrome 98.0.4758.102,1366x768,1366x625,Part 1 completed,Pics_Only_Dutch,5,Part 1 completed,,Accuracy_level_1,112820.60000002384,,,,,instructions,0,112828,0.0-0.0,,,,,,,
2,1646737119739,08/03/2022 10:58:39,1646737126292,1,08/03/2022 11:58:46,73265,15,task-onds,,20182675,BLIND,5974335,Intro Experiment: General explanations,complete,,,computer,Desktop or Laptop,Windows 10,Chrome 98.0.4758.102,1366x768,1366x625,Part 1 completed,Pics_Only_Dutch,5,Part 1 completed,,Accuracy_level_1,,"<div style=""font-size:60px;"">  </div>",,,,html-keyboard-response,1,112950,0.0-1.0-0.0,,,,,,,
3,1646737121239,08/03/2022 10:58:41,1646737127800,1,08/03/2022 11:58:47,73265,15,task-onds,,20182675,BLIND,5974335,Intro Experiment: General explanations,complete,,,computer,Desktop or Laptop,Windows 10,Chrome 98.0.4758.102,1366x768,1366x625,Part 1 completed,Pics_Only_Dutch,5,Part 1 completed,,Accuracy_level_1,,/task/320041/5/asset/comb.jpg,,,j,image-keyboard-response,2,114456,0.0-1.0-1.0,,,test,,0,,0.02715
4,1646737121349,08/03/2022 10:58:41,1646737127907,1,08/03/2022 11:58:47,73265,15,task-onds,,20182675,BLIND,5974335,Intro Experiment: General explanations,complete,,,computer,Desktop or Laptop,Windows 10,Chrome 98.0.4758.102,1366x768,1366x625,Part 1 completed,Pics_Only_Dutch,5,Part 1 completed,,Accuracy_level_1,,"<div style=""font-size:60px;"">  </div>",,,,html-keyboard-response,3,114564,0.0-1.0-0.1,,,,,,,
5,1646737122896,08/03/2022 10:58:42,1646737129411,1,08/03/2022 11:58:49,73265,15,task-onds,,20182675,BLIND,5974335,Intro Experiment: General explanations,complete,,,computer,Desktop or Laptop,Windows 10,Chrome 98.0.4758.102,1366x768,1366x625,Part 1 completed,Pics_Only_Dutch,5,Part 1 completed,,Accuracy_level_1,19.300000071525574,/task/320041/5/asset/house.jpg,,,f,image-keyboard-response,4,116068,0.0-1.0-1.1,,,test,,0,,0.054
6,1646737122995,08/03/2022 10:58:42,1646737129516,1,08/03/2022 11:58:49,73265,15,task-onds,,20182675,BLIND,5974335,Intro Experiment: General explanations,complete,,,computer,Desktop or Laptop,Windows 10,Chrome 98.0.4758.102,1366x768,1366x625,Part 1 completed,Pics_Only_Dutch,5,Part 1 completed,,Accuracy_level_1,,"<div style=""font-size:60px;"">  </div>",,,,html-keyboard-response,5,116174,0.0-1.1-0.2,,,,,,,
7,1646737124448,08/03/2022 10:58:44,1646737131019,1,08/03/2022 11:58:51,73265,15,task-onds,,20182675,BLIND,5974335,Intro Experiment: General explanations,complete,,,computer,Desktop or Laptop,Windows 10,Chrome 98.0.4758.102,1366x768,1366x625,Part 1 completed,Pics_Only_Dutch,5,Part 1 completed,,Accuracy_level_1,713.1000000238419,/task/320041/5/asset/plane.jpg,,,f,image-keyboard-response,6,117677,0.0-1.1-1.2,,,test,,,,0.0808
8,1646737124587,08/03/2022 10:58:44,1646737131125,1,08/03/2022 11:58:51,73265,15,task-onds,,20182675,BLIND,5974335,Intro Experiment: General explanations,complete,,,computer,Desktop or Laptop,Windows 10,Chrome 98.0.4758.102,1366x768,1366x625,Part 1 completed,Pics_Only_Dutch,5,Part 1 completed,,Accuracy_level_1,,"<div style=""font-size:60px;"">  </div>",,,,html-keyboard-response,7,117783,0.0-1.1-0.3,,,,,,,
9,1646737126051,08/03/2022 10:58:46,1646737132630,1,08/03/2022 11:58:52,73265,15,task-onds,,20182675,BLIND,5974335,Intro Experiment: General explanations,complete,,,computer,Desktop or Laptop,Windows 10,Chrome 98.0.4758.102,1366x768,1366x625,Part 1 completed,Pics_Only_Dutch,5,Part 1 completed,,Accuracy_level_1,719.8999999761581,/task/320041/5/asset/elephant.jpg,,,f,image-keyboard-response,8,119287,0.0-1.1-1.3,,,test,,0.7,,0.10765
10,1646737126152,08/03/2022 10:58:46,1646737132735,1,08/03/2022 11:58:52,73265,15,task-onds,,20182675,BLIND,5974335,Intro Experiment: General explanations,complete,,,computer,Desktop or Laptop,Windows 10,Chrome 98.0.4758.102,1366x768,1366x625,Part 1 completed,Pics_Only_Dutch,5,Part 1 completed,,Accuracy_level_1,,"<div style=""font-size:60px;"">  </div>",,,,html-keyboard-response,9,119393,0.0-1.2-0.4,,,,,,,
11,1646737127659,08/03/2022 10:58:47,1646737134241,1,08/03/2022 11:58:54,73265,15,task-onds,,20182675,BLIND,5974335,Intro Experiment: General explanations,complete,,,computer,Desktop or Laptop,Windows 10,Chrome 98.0.4758.102,1366x768,1366x625,Part 1 completed,Pics_Only_Dutch,5,Part 1 completed,,Accuracy_level_1,475.39999997615814,/task/320041/5/asset/plane.jpg,,,f,image-keyboard-response,10,120899,0.0-1.2-1.4,,,test,,0.525,,0.1345
12,1646737127776,08/03/2022 10:58:47,1646737134348,1,08/03/2022 11:58:54,73265,15,task-onds,,20182675,BLIND,5974335,Intro Experiment: General explanations,complete,,,computer,Desktop or Laptop,Windows 10,Chrome 98.0.4758.102,1366x768,1366x625,Part 1 completed,Pics_Only_Dutch,5,Part 1 completed,,Accuracy_level_1,,"<div style=""font-size:60px;"">  </div>",,,,html-keyboard-response,11,121006,0.0-1.2-0.5,,,,,,,
13,1646737129277,08/03/2022 10:58:49,1646737135855,1,08/03/2022 11:58:55,73265,15,task-onds,,20182675,BLIND,5974335,Intro Experiment: General explanations,complete,,,computer,Desktop or Laptop,Windows 10,Chrome 98.0.4758.102,1366x768,1366x625,Part 1 completed,Pics_Only_Dutch,5,Part 1 completed,,Accuracy_level_1,,/task/320041/5/asset/key.png,,,j,image-keyboard-response,12,122512,0.0-1.2-1.5,,,test,,0.35000000000000003,,0.1614
14,1646737129484,08/03/2022 10:58:49,1646737136059,1,08/03/2022 11:58:56,73265,15,task-onds,,20182675,BLIND,5974335,Intro Experiment: General explanations,complete,,,computer,Desktop or Laptop,Windows 10,Chrome 98.0.4758.102,1366x768,1366x625,Part 1 completed,Pics_Only_Dutch,5,Part 1 completed,,Accuracy_level_1,,"<span style=""color:red;font-size:50px;font-weight: bold;"">FOUT!</span>",,,,html-keyboard-response,13,122717,0.0-1.2-2.5-0.5,,,,,,,
15,1646737129592,08/03/2022 10:58:49,1646737136164,1,08/03/2022 11:58:56,73265,15,task-onds,,20182675,BLIND,5974335,Intro Experiment: General explanations,complete,,,computer,Desktop or Laptop,Windows 10,Chrome 98.0.4758.102,1366x768,1366x625,Part 1 completed,Pics_Only_Dutch,5,Part 1 completed,,Accuracy_level_1,,"<div style=""font-size:60px;"">  </div>",,,,html-keyboard-response,14,122822,0.0-1.3-0.6,,,,,,,
16,1646737131092,08/03/2022 10:58:51,1646737137669,1,08/03/2022 11:58:57,73265,15,task-onds,,20182675,BLIND,5974335,Intro Experiment: General explanations,complete,,,computer,Desktop or Laptop,Windows 10,Chrome 98.0.4758.102,1366x768,1366x625,Part 1 completed,Pics_Only_Dutch,5,Part 1 completed,,Accuracy_level_1,779.2000000476837,/task/320041/5/asset/pear.jpg,,,j,image-keyboard-response,15,124327,0.0-1.3-1.6,,,test,,0.3111111111111111,,0.19163333333333332
17,1646737131203,08/03/2022 10:58:51,1646737137774,1,08/03/2022 11:58:57,73265,15,task-onds,,20182675,BLIND,5974335,Intro Experiment: General explanations,complete,,,computer,Desktop or Laptop,Windows 10,Chrome 98.0.4758.102,1366x768,1366x625,Part 1 completed,Pics_Only_Dutch,5,Part 1 completed,,Accuracy_level_1,,"<div style=""font-size:60px;"">  </div>",,,,html-keyboard-response,16,124432,0.0-1.3-0.7,,,,,,,
18,1646737132695,08/03/2022 10:58:52,1646737139279,1,08/03/2022 11:58:59,73265,15,task-onds,,20182675,BLIND,5974335,Intro Experiment: General explanations,complete,,,computer,Desktop or Laptop,Windows 10,Chrome 98.0.4758.102,1366x768,1366x625,Part 1 completed,Pics_Only_Dutch,5,Part 1 completed,,Accuracy_level_1,441.10000002384186,/task/320041/5/asset/pear.jpg,,,j,image-keyboard-response,17,125936,0.0-1.3-1.7,,,test,,0.3181818181818182,,0.21846666666666667
1,1645539185078,22/02/2022 14:13:05,1645539184227,1,22/02/2022 15:13:04,73265,15,task-onds,,19681893,BLIND,5769634,Intro Experiment: General explanations,complete,,,computer,Desktop or Laptop,Windows 10,Chrome 98.0.4758.102,1368x912,1368x801,Part 1 completed,Pics_Only_Dutch,5,Part 1 completed,,Accuracy_level_1,27030.600000023842,,,,,instructions,0,27035,0.0-0.0,,,,,,,
2,1645539185203,22/02/2022 14:13:05,1645539184354,1,22/02/2022 15:13:04,73265,15,task-onds,,19681893,BLIND,5769634,Intro Experiment: General explanations,complete,,,computer,Desktop or Laptop,Windows 10,Chrome 98.0.4758.102,1368x912,1368x801,Part 1 completed,Pics_Only_Dutch,5,Part 1 completed,,Accuracy_level_1,,"<div style=""font-size:60px;"">  </div>",,,,html-keyboard-response,1,27163,0.0-1.0-0.0,,,,,,,
3,1645539186625,22/02/2022 14:13:06,1645539185867,1,22/02/2022 15:13:05,73265,15,task-onds,,19681893,BLIND,5769634,Intro Experiment: General explanations,complete,,,computer,Desktop or Laptop,Windows 10,Chrome 98.0.4758.102,1368x912,1368x801,Part 1 completed,Pics_Only_Dutch,5,Part 1 completed,,Accuracy_level_1,955.6000000238419,/task/320041/5/asset/plane.jpg,,,f,image-keyboard-response,2,28675,0.0-1.0-1.0,,,test,,0,,0.02735
4,1645539186771,22/02/2022 14:13:06,1645539185975,1,22/02/2022 15:13:05,73265,15,task-onds,,19681893,BLIND,5769634,Intro Experiment: General explanations,complete,,,computer,Desktop or Laptop,Windows 10,Chrome 98.0.4758.102,1368x912,1368x801,Part 1 completed,Pics_Only_Dutch,5,Part 1 completed,,Accuracy_level_1,,"<div style=""font-size:60px;"">  </div>",,,,html-keyboard-response,3,28783,0.0-1.0-0.1,,,,,,,
5,1645539188259,22/02/2022 14:13:08,1645539187484,1,22/02/2022 15:13:07,73265,15,task-onds,,19681893,BLIND,5769634,Intro Experiment: General explanations,complete,,,computer,Desktop or Laptop,Windows 10,Chrome 98.0.4758.102,1368x912,1368x801,Part 1 completed,Pics_Only_Dutch,5,Part 1 completed,,Accuracy_level_1,843.3999999761581,/task/320041/5/asset/plane.jpg,,,f,image-keyboard-response,4,30292,0.0-1.0-1.1,,,test,,-0.35,,0.0543
6,1645539188363,22/02/2022 14:13:08,1645539187589,1,22/02/2022 15:13:07,73265,15,task-onds,,19681893,BLIND,5769634,Intro Experiment: General explanations,complete,,,computer,Desktop or Laptop,Windows 10,Chrome 98.0.4758.102,1368x912,1368x801,Part 1 completed,Pics_Only_Dutch,5,Part 1 completed,,Accuracy_level_1,,"<div style=""font-size:60px;"">  </div>",,,,html-keyboard-response,5,30398,0.0-1.1-0.2,,,,,,,
7,1645539189873,22/02/2022 14:13:09,1645539189097,1,22/02/2022 15:13:09,73265,15,task-onds,,19681893,BLIND,5769634,Intro Experiment: General explanations,complete,,,computer,Desktop or Laptop,Windows 10,Chrome 98.0.4758.102,1368x912,1368x801,Part 1 completed,Pics_Only_Dutch,5,Part 1 completed,,Accuracy_level_1,685.6000000238419,/task/320041/5/asset/pear.jpg,,,j,image-keyboard-response,6,31905,0.0-1.1-1.2,,,test,,,,0.08116666666666666
8,1645539189973,22/02/2022 14:13:09,1645539189202,1,22/02/2022 15:13:09,73265,15,task-onds,,19681893,BLIND,5769634,Intro Experiment: General explanations,complete,,,computer,Desktop or Laptop,Windows 10,Chrome 98.0.4758.102,1368x912,1368x801,Part 1 completed,Pics_Only_Dutch,5,Part 1 completed,,Accuracy_level_1,,"<div style=""font-size:60px;"">  </div>",,,,html-keyboard-response,7,32011,0.0-1.1-0.3,,,,,,,
9,1645539191624,22/02/2022 14:13:11,1645539190712,1,22/02/2022 15:13:10,73265,15,task-onds,,19681893,BLIND,5769634,Intro Experiment: General explanations,complete,,,computer,Desktop or Laptop,Windows 10,Chrome 98.0.4758.102,1368x912,1368x801,Part 1 completed,Pics_Only_Dutch,5,Part 1 completed,,Accuracy_level_1,605.9000000953674,/task/320041/5/asset/truck.jpg,,,f,image-keyboard-response,8,33520,0.0-1.1-1.3,,,test,,1.05,,0.10808333333333334
10,1645539191704,22/02/2022 14:13:11,1645539190818,1,22/02/2022 15:13:10,73265,15,task-onds,,19681893,BLIND,5769634,Intro Experiment: General explanations,complete,,,computer,Desktop or Laptop,Windows 10,Chrome 98.0.4758.102,1368x912,1368x801,Part 1 completed,Pics_Only_Dutch,5,Part 1 completed,,Accuracy_level_1,,"<div style=""font-size:60px;"">  </div>",,,,html-keyboard-response,9,33627,0.0-1.2-0.4,,,,,,,
11,1645539193096,22/02/2022 14:13:13,1645539192322,1,22/02/2022 15:13:12,73265,15,task-onds,,19681893,BLIND,5769634,Intro Experiment: General explanations,complete,,,computer,Desktop or Laptop,Windows 10,Chrome 98.0.4758.102,1368x912,1368x801,Part 1 completed,Pics_Only_Dutch,5,Part 1 completed,,Accuracy_level_1,,/task/320041/5/asset/key.png,,,j,image-keyboard-response,10,35130,0.0-1.2-1.4,,,test,,0.525,,0.13493333333333332
12,1645539193302,22/02/2022 14:13:13,1645539192529,1,22/02/2022 15:13:12,73265,15,task-onds,,19681893,BLIND,5769634,Intro Experiment: General explanations,complete,,,computer,Desktop or Laptop,Windows 10,Chrome 98.0.4758.102,1368x912,1368x801,Part 1 completed,Pics_Only_Dutch,5,Part 1 completed,,Accuracy_level_1,,"<span style=""color:red;font-size:50px;font-weight: bold;"">FOUT!</span>",,,,html-keyboard-response,11,35338,0.0-1.2-2.4-0.4,,,,,,,
13,1645539193414,22/02/2022 14:13:13,1645539192633,1,22/02/2022 15:13:12,73265,15,task-onds,,19681893,BLIND,5769634,Intro Experiment: General explanations,complete,,,computer,Desktop or Laptop,Windows 10,Chrome 98.0.4758.102,1368x912,1368x801,Part 1 completed,Pics_Only_Dutch,5,Part 1 completed,,Accuracy_level_1,,"<div style=""font-size:60px;"">  </div>",,,,html-keyboard-response,12,35442,0.0-1.2-0.5,,,,,,,
14,1645539194904,22/02/2022 14:13:14,1645539194138,1,22/02/2022 15:13:14,73265,15,task-onds,,19681893,BLIND,5769634,Intro Experiment: General explanations,complete,,,computer,Desktop or Laptop,Windows 10,Chrome 98.0.4758.102,1368x912,1368x801,Part 1 completed,Pics_Only_Dutch,5,Part 1 completed,,Accuracy_level_1,1435.7000000476837,/task/320041/5/asset/house.jpg,,,f,image-keyboard-response,13,36947,0.0-1.2-1.5,,,test,,0.3,,0.1652
15,1645539195114,22/02/2022 14:13:15,1645539194343,1,22/02/2022 15:13:14,73265,15,task-onds,,19681893,BLIND,5769634,Intro Experiment: General explanations,complete,,,computer,Desktop or Laptop,Windows 10,Chrome 98.0.4758.102,1368x912,1368x801,Part 1 completed,Pics_Only_Dutch,5,Part 1 completed,,Accuracy_level_1,,"<span style=""color:red;font-size:50px;font-weight: bold;"">FOUT!</span>",,,,html-keyboard-response,14,37152,0.0-1.2-2.5-0.5,,,,,,,
16,1645539195231,22/02/2022 14:13:15,1645539194448,1,22/02/2022 15:13:14,73265,15,task-onds,,19681893,BLIND,5769634,Intro Experiment: General explanations,complete,,,computer,Desktop or Laptop,Windows 10,Chrome 98.0.4758.102,1368x912,1368x801,Part 1 completed,Pics_Only_Dutch,5,Part 1 completed,,Accuracy_level_1,,"<div style=""font-size:60px;"">  </div>",,,,html-keyboard-response,15,37257,0.0-1.3-0.6,,,,,,,
17,1645539196730,22/02/2022 14:13:16,1645539195954,1,22/02/2022 15:13:15,73265,15,task-onds,,19681893,BLIND,5769634,Intro Experiment: General explanations,complete,,,computer,Desktop or Laptop,Windows 10,Chrome 98.0.4758.102,1368x912,1368x801,Part 1 completed,Pics_Only_Dutch,5,Part 1 completed,,Accuracy_level_1,580.2000000476837,/task/320041/5/asset/house.jpg,,,f,image-keyboard-response,16,38762,0.0-1.3-1.6,,,test,,0.27999999999999997,,0.19546666666666668
18,1645539196820,22/02/2022 14:13:16,1645539196058,1,22/02/2022 15:13:16,73265,15,task-onds,,19681893,BLIND,5769634,Intro Experiment: General explanations,complete,,,computer,Desktop or Laptop,Windows 10,Chrome 98.0.4758.102,1368x912,1368x801,Part 1 completed,Pics_Only_Dutch,5,Part 1 completed,,Accuracy_level_1,,"<div style=""font-size:60px;"">  </div>",,,,html-keyboard-response,17,38867,0.0-1.3-0.7,,,,,,,
19,1645539198372,22/02/2022 14:13:18,1645539197566,1,22/02/2022 15:13:17,73265,15,task-onds,,19681893,BLIND,5769634,Intro Experiment: General explanations,complete,,,computer,Desktop or Laptop,Windows 10,Chrome 98.0.4758.102,1368x912,1368x801,Part 1 completed,Pics_Only_Dutch,5,Part 1 completed,,Accuracy_level_1,,/task/320041/5/asset/key.png,,,j,image-keyboard-response,18,40374,0.0-1.3-1.7,,,test,,0.2333333333333333,,0.22231666666666666
20,1645539198579,22/02/2022 14:13:18,1645539197770,1,22/02/2022 15:13:17,73265,15,task-onds,,19681893,BLIND,5769634,Intro Experiment: General explanations,complete,,,computer,Desktop or Laptop,Windows 10,Chrome 98.0.4758.102,1368x912,1368x801,Part 1 completed,Pics_Only_Dutch,5,Part 1 completed,,Accuracy_level_1,,"<span style=""color:red;font-size:50px;font-weight: bold;"">FOUT!</span>",,,,html-keyboard-response,19,40578,0.0-1.3-2.7-0.7,,,,,,,
1,1645450660603,21/02/2022 13:37:40,1645450663398,1,21/02/2022 14:37:43,73265,15,task-onds,,19641976,BLIND,5823435,Intro Experiment: General explanations,complete,,,computer,Desktop or Laptop,Windows 10,Chrome 98.0.4758.102,1280x720,1280x569,Part 1 completed,Pics_Only_Dutch,5,Part 1 completed,,Accuracy_level_1,21136.600000023842,,,,,instructions,0,21144,0.0-0.0,,,,,,,
2,1645450660697,21/02/2022 13:37:40,1645450663539,1,21/02/2022 14:37:43,73265,15,task-onds,,19641976,BLIND,5823435,Intro Experiment: General explanations,complete,,,computer,Desktop or Laptop,Windows 10,Chrome 98.0.4758.102,1280x720,1280x569,Part 1 completed,Pics_Only_Dutch,5,Part 1 completed,,Accuracy_level_1,,"<div style=""font-size:60px;"">  </div>",,,,html-keyboard-response,1,21287,0.0-1.0-0.0,,,,,,,
3,1645450662186,21/02/2022 13:37:42,1645450665059,1,21/02/2022 14:37:45,73265,15,task-onds,,19641976,BLIND,5823435,Intro Experiment: General explanations,complete,,,computer,Desktop or Laptop,Windows 10,Chrome 98.0.4758.102,1280x720,1280x569,Part 1 completed,Pics_Only_Dutch,5,Part 1 completed,,Accuracy_level_1,981.5,/task/320041/5/asset/truck.jpg,,,f,image-keyboard-response,2,22805,0.0-1.0-1.0,,,test,,-0.175,,0.0277
4,1645450662310,21/02/2022 13:37:42,1645450665177,1,21/02/2022 14:37:45,73265,15,task-onds,,19641976,BLIND,5823435,Intro Experiment: General explanations,complete,,,computer,Desktop or Laptop,Windows 10,Chrome 98.0.4758.102,1280x720,1280x569,Part 1 completed,Pics_Only_Dutch,5,Part 1 completed,,Accuracy_level_1,,"<div style=""font-size:60px;"">  </div>",,,,html-keyboard-response,3,22925,0.0-1.0-0.1,,,,,,,
5,1645450663842,21/02/2022 13:37:43,1645450666697,1,21/02/2022 14:37:46,73265,15,task-onds,,19641976,BLIND,5823435,Intro Experiment: General explanations,complete,,,computer,Desktop or Laptop,Windows 10,Chrome 98.0.4758.102,1280x720,1280x569,Part 1 completed,Pics_Only_Dutch,5,Part 1 completed,,Accuracy_level_1,,/task/320041/5/asset/key.png,,,j,image-keyboard-response,4,24445,0.0-1.0-1.1,,,test,,-0.35,,0.055
6,1645450663954,21/02/2022 13:37:43,1645450666810,1,21/02/2022 14:37:46,73265,15,task-onds,,19641976,BLIND,5823435,Intro Experiment: General explanations,complete,,,computer,Desktop or Laptop,Windows 10,Chrome 98.0.4758.102,1280x720,1280x569,Part 1 completed,Pics_Only_Dutch,5,Part 1 completed,,Accuracy_level_1,,"<div style=""font-size:60px;"">  </div>",,,,html-keyboard-response,5,24558,0.0-1.1-0.2,,,,,,,
7,1645450665444,21/02/2022 13:37:45,1645450668317,1,21/02/2022 14:37:48,73265,15,task-onds,,19641976,BLIND,5823435,Intro Experiment: General explanations,complete,,,computer,Desktop or Laptop,Windows 10,Chrome 98.0.4758.102,1280x720,1280x569,Part 1 completed,Pics_Only_Dutch,5,Part 1 completed,,Accuracy_level_1,914.5,/task/320041/5/asset/comb.jpg,,,j,image-keyboard-response,6,26065,0.0-1.1-1.2,,,test,,,,0.082
8,1645450665563,21/02/2022 13:37:45,1645450668433,1,21/02/2022 14:37:48,73265,15,task-onds,,19641976,BLIND,5823435,Intro Experiment: General explanations,complete,,,computer,Desktop or Laptop,Windows 10,Chrome 98.0.4758.102,1280x720,1280x569,Part 1 completed,Pics_Only_Dutch,5,Part 1 completed,,Accuracy_level_1,,"<div style=""font-size:60px;"">  </div>",,,,html-keyboard-response,7,26181,0.0-1.1-0.3,,,,,,,
9,1645450667115,21/02/2022 13:37:47,1645450669947,1,21/02/2022 14:37:49,73265,15,task-onds,,19641976,BLIND,5823435,Intro Experiment: General explanations,complete,,,computer,Desktop or Laptop,Windows 10,Chrome 98.0.4758.102,1280x720,1280x569,Part 1 completed,Pics_Only_Dutch,5,Part 1 completed,,Accuracy_level_1,764.0999999046326,/task/320041/5/asset/comb.jpg,,,j,image-keyboard-response,8,27694,0.0-1.1-1.3,,,test,,1.05,,0.10916666666666666
10,1645450667226,21/02/2022 13:37:47,1645450670057,1,21/02/2022 14:37:50,73265,15,task-onds,,19641976,BLIND,5823435,Intro Experiment: General explanations,complete,,,computer,Desktop or Laptop,Windows 10,Chrome 98.0.4758.102,1280x720,1280x569,Part 1 completed,Pics_Only_Dutch,5,Part 1 completed,,Accuracy_level_1,,"<div style=""font-size:60px;"">  </div>",,,,html-keyboard-response,9,27805,0.0-1.2-0.4,,,,,,,
11,1645450668724,21/02/2022 13:37:48,1645450671575,1,21/02/2022 14:37:51,73265,15,task-onds,,19641976,BLIND,5823435,Intro Experiment: General explanations,complete,,,computer,Desktop or Laptop,Windows 10,Chrome 98.0.4758.102,1280x720,1280x569,Part 1 completed,Pics_Only_Dutch,5,Part 1 completed,,Accuracy_level_1,579.8999999761581,/task/320041/5/asset/truck.jpg,,,f,image-keyboard-response,10,29323,0.0-1.2-1.4,,,test,,0.7,,0.1363
12,1645450668836,21/02/2022 13:37:48,1645450671687,1,21/02/2022 14:37:51,73265,15,task-onds,,19641976,BLIND,5823435,Intro Experiment: General explanations,complete,,,computer,Desktop or Laptop,Windows 10,Chrome 98.0.4758.102,1280x720,1280x569,Part 1 completed,Pics_Only_Dutch,5,Part 1 completed,,Accuracy_level_1,,"<div style=""font-size:60px;"">  </div>",,,,html-keyboard-response,11,29435,0.0-1.2-0.5,,,,,,,
13,1645450670339,21/02/2022 13:37:50,1645450673200,1,21/02/2022 14:37:53,73265,15,task-onds,,19641976,BLIND,5823435,Intro Experiment: General explanations,complete,,,computer,Desktop or Laptop,Windows 10,Chrome 98.0.4758.102,1280x720,1280x569,Part 1 completed,Pics_Only_Dutch,5,Part 1 completed,,Accuracy_level_1,690.5,/task/320041/5/asset/elephant.jpg,,,f,image-keyboard-response,12,30948,0.0-1.2-1.5,,,test,,0.5833333333333334,,0.16338333333333332
14,1645450670442,21/02/2022 13:37:50,1645450673308,1,21/02/2022 14:37:53,73265,15,task-onds,,19641976,BLIND,5823435,Intro Experiment: General explanations,complete,,,computer,Desktop or Laptop,Windows 10,Chrome 98.0.4758.102,1280x720,1280x569,Part 1 completed,Pics_Only_Dutch,5,Part 1 completed,,Accuracy_level_1,,"<div style=""font-size:60px;"">  </div>",,,,html-keyboard-response,13,31056,0.0-1.3-0.6,,,,,,,
15,1645450671964,21/02/2022 13:37:51,1645450674820,1,21/02/2022 14:37:54,73265,15,task-onds,,19641976,BLIND,5823435,Intro Experiment: General explanations,complete,,,computer,Desktop or Laptop,Windows 10,Chrome 98.0.4758.102,1280x720,1280x569,Part 1 completed,Pics_Only_Dutch,5,Part 1 completed,,Accuracy_level_1,585.3999999761581,/task/320041/5/asset/truck.jpg,,,f,image-keyboard-response,14,32567,0.0-1.3-1.6,,,test,,0.525,,0.19038333333333332
16,1645450672052,21/02/2022 13:37:52,1645450674927,1,21/02/2022 14:37:54,73265,15,task-onds,,19641976,BLIND,5823435,Intro Experiment: General explanations,complete,,,computer,Desktop or Laptop,Windows 10,Chrome 98.0.4758.102,1280x720,1280x569,Part 1 completed,Pics_Only_Dutch,5,Part 1 completed,,Accuracy_level_1,,"<div style=""font-size:60px;"">  </div>",,,,html-keyboard-response,15,32675,0.0-1.3-0.7,,,,,,,
17,1645450673567,21/02/2022 13:37:53,1645450676433,1,21/02/2022 14:37:56,73265,15,task-onds,,19641976,BLIND,5823435,Intro Experiment: General explanations,complete,,,computer,Desktop or Laptop,Windows 10,Chrome 98.0.4758.102,1280x720,1280x569,Part 1 completed,Pics_Only_Dutch,5,Part 1 completed,,Accuracy_level_1,625.3999999761581,/task/320041/5/asset/glass.jpg,,,j,image-keyboard-response,16,34181,0.0-1.3-1.7,,,test,,0.49000000000000005,,0.21726666666666666
1,1645289549150,19/02/2022 16:52:29,1645289549823,1,19/02/2022 17:52:29,73265,15,task-onds,,19605813,BLIND,5811546,Intro Experiment: General explanations,complete,,,computer,Desktop or Laptop,Windows 10,Chrome 98.0.4758.82,1280x720,1280x577,Part 1 completed,Pics_Only_Dutch,5,Part 1 completed,,Accuracy_level_1,92434.19999998808,,,,,instructions,0,92439,0.0-0.0,,,,,,,
2,1645289549248,19/02/2022 16:52:29,1645289549935,1,19/02/2022 17:52:29,73265,15,task-onds,,19605813,BLIND,5811546,Intro Experiment: General explanations,complete,,,computer,Desktop or Laptop,Windows 10,Chrome 98.0.4758.82,1280x720,1280x577,Part 1 completed,Pics_Only_Dutch,5,Part 1 completed,,Accuracy_level_1,,"<div style=""font-size:60px;"">  </div>",,,,html-keyboard-response,1,92552,0.0-1.0-0.0,,,,,,,
3,1645289550520,19/02/2022 16:52:30,1645289551460,1,19/02/2022 17:52:31,73265,15,task-onds,,19605813,BLIND,5811546,Intro Experiment: General explanations,complete,,,computer,Desktop or Laptop,Windows 10,Chrome 98.0.4758.82,1280x720,1280x577,Part 1 completed,Pics_Only_Dutch,5,Part 1 completed,,Accuracy_level_1,,/task/320041/5/asset/comb.jpg,,,j,image-keyboard-response,2,94076,0.0-1.0-1.0,,,test,,0,,0.0273
4,1645289550603,19/02/2022 16:52:30,1645289551565,1,19/02/2022 17:52:31,73265,15,task-onds,,19605813,BLIND,5811546,Intro Experiment: General explanations,complete,,,computer,Desktop or Laptop,Windows 10,Chrome 98.0.4758.82,1280x720,1280x577,Part 1 completed,Pics_Only_Dutch,5,Part 1 completed,,Accuracy_level_1,,"<div style=""font-size:60px;"">  </div>",,,,html-keyboard-response,3,94182,0.0-1.0-0.1,,,,,,,
5,1645289552125,19/02/2022 16:52:32,1645289553069,1,19/02/2022 17:52:33,73265,15,task-onds,,19605813,BLIND,5811546,Intro Experiment: General explanations,complete,,,computer,Desktop or Laptop,Windows 10,Chrome 98.0.4758.82,1280x720,1280x577,Part 1 completed,Pics_Only_Dutch,5,Part 1 completed,,Accuracy_level_1,,/task/320041/5/asset/pear.jpg,,,j,image-keyboard-response,4,95685,0.0-1.0-1.1,,,test,,0,,0.05411666666666667
6,1645289552234,19/02/2022 16:52:32,1645289553173,1,19/02/2022 17:52:33,73265,15,task-onds,,19605813,BLIND,5811546,Intro Experiment: General explanations,complete,,,computer,Desktop or Laptop,Windows 10,Chrome 98.0.4758.82,1280x720,1280x577,Part 1 completed,Pics_Only_Dutch,5,Part 1 completed,,Accuracy_level_1,,"<div style=""font-size:60px;"">  </div>",,,,html-keyboard-response,5,95789,0.0-1.1-0.2,,,,,,,
7,1645289553727,19/02/2022 16:52:33,1645289554680,1,19/02/2022 17:52:34,73265,15,task-onds,,19605813,BLIND,5811546,Intro Experiment: General explanations,complete,,,computer,Desktop or Laptop,Windows 10,Chrome 98.0.4758.82,1280x720,1280x577,Part 1 completed,Pics_Only_Dutch,5,Part 1 completed,,Accuracy_level_1,584.1999999880791,/task/320041/5/asset/house.jpg,,,f,image-keyboard-response,6,97297,0.0-1.1-1.2,,,test,,,,0.08096666666666667
8,1645289553860,19/02/2022 16:52:33,1645289554784,1,19/02/2022 17:52:34,73265,15,task-onds,,19605813,BLIND,5811546,Intro Experiment: General explanations,complete,,,computer,Desktop or Laptop,Windows 10,Chrome 98.0.4758.82,1280x720,1280x577,Part 1 completed,Pics_Only_Dutch,5,Part 1 completed,,Accuracy_level_1,,"<div style=""font-size:60px;"">  </div>",,,,html-keyboard-response,7,97401,0.0-1.1-0.3,,,,,,,
9,1645289555360,19/02/2022 16:52:35,1645289556289,1,19/02/2022 17:52:36,73265,15,task-onds,,19605813,BLIND,5811546,Intro Experiment: General explanations,complete,,,computer,Desktop or Laptop,Windows 10,Chrome 98.0.4758.82,1280x720,1280x577,Part 1 completed,Pics_Only_Dutch,5,Part 1 completed,,Accuracy_level_1,626.3000000119209,/task/320041/5/asset/plane.jpg,,,f,image-keyboard-response,8,98905,0.0-1.1-1.3,,,test,,0.7,,0.10778333333333333
10,1645289555440,19/02/2022 16:52:35,1645289556392,1,19/02/2022 17:52:36,73265,15,task-onds,,19605813,BLIND,5811546,Intro Experiment: General explanations,complete,,,computer,Desktop or Laptop,Windows 10,Chrome 98.0.4758.82,1280x720,1280x577,Part 1 completed,Pics_Only_Dutch,5,Part 1 completed,,Accuracy_level_1,,"<div style=""font-size:60px;"">  </div>",,,,html-keyboard-response,9,99009,0.0-1.2-0.4,,,,,,,
11,1645289556953,19/02/2022 16:52:36,1645289557898,1,19/02/2022 17:52:37,73265,15,task-onds,,19605813,BLIND,5811546,Intro Experiment: General explanations,complete,,,computer,Desktop or Laptop,Windows 10,Chrome 98.0.4758.82,1280x720,1280x577,Part 1 completed,Pics_Only_Dutch,5,Part 1 completed,,Accuracy_level_1,517.3999999761581,/task/320041/5/asset/elephant.jpg,,,f,image-keyboard-response,10,100515,0.0-1.2-1.4,,,test,,0.525,,0.1346
12,1645289557067,19/02/2022 16:52:37,1645289558003,1,19/02/2022 17:52:38,73265,15,task-onds,,19605813,BLIND,5811546,Intro Experiment: General explanations,complete,,,computer,Desktop or Laptop,Windows 10,Chrome 98.0.4758.82,1280x720,1280x577,Part 1 completed,Pics_Only_Dutch,5,Part 1 completed,,Accuracy_level_1,,"<div style=""font-size:60px;"">  </div>",,,,html-keyboard-response,11,100620,0.0-1.2-0.5,,,,,,,
13,1645289558561,19/02/2022 16:52:38,1645289559507,1,19/02/2022 17:52:39,73265,15,task-onds,,19605813,BLIND,5811546,Intro Experiment: General explanations,complete,,,computer,Desktop or Laptop,Windows 10,Chrome 98.0.4758.82,1280x720,1280x577,Part 1 completed,Pics_Only_Dutch,5,Part 1 completed,,Accuracy_level_1,,/task/320041/5/asset/key.png,,,j,image-keyboard-response,12,102124,0.0-1.2-1.5,,,test,,0.35000000000000003,,0.16141666666666668
14,1645289558765,19/02/2022 16:52:38,1645289559711,1,19/02/2022 17:52:39,73265,15,task-onds,,19605813,BLIND,5811546,Intro Experiment: General explanations,complete,,,computer,Desktop or Laptop,Windows 10,Chrome 98.0.4758.82,1280x720,1280x577,Part 1 completed,Pics_Only_Dutch,5,Part 1 completed,,Accuracy_level_1,,"<span style=""color:red;font-size:50px;font-weight: bold;"">FOUT!</span>",,,,html-keyboard-response,13,102328,0.0-1.2-2.5-0.5,,,,,,,
15,1645289558861,19/02/2022 16:52:38,1645289559815,1,19/02/2022 17:52:39,73265,15,task-onds,,19605813,BLIND,5811546,Intro Experiment: General explanations,complete,,,computer,Desktop or Laptop,Windows 10,Chrome 98.0.4758.82,1280x720,1280x577,Part 1 completed,Pics_Only_Dutch,5,Part 1 completed,,Accuracy_level_1,,"<div style=""font-size:60px;"">  </div>",,,,html-keyboard-response,14,102432,0.0-1.3-0.6,,,,,,,
16,1645289560381,19/02/2022 16:52:40,1645289561320,1,19/02/2022 17:52:41,73265,15,task-onds,,19605813,BLIND,5811546,Intro Experiment: General explanations,complete,,,computer,Desktop or Laptop,Windows 10,Chrome 98.0.4758.82,1280x720,1280x577,Part 1 completed,Pics_Only_Dutch,5,Part 1 completed,,Accuracy_level_1,617.5999999642372,/task/320041/5/asset/glass.jpg,,,j,image-keyboard-response,15,103936,0.0-1.3-1.6,,,test,,0.3111111111111111,,0.19163333333333332
17,1645289560474,19/02/2022 16:52:40,1645289561422,1,19/02/2022 17:52:41,73265,15,task-onds,,19605813,BLIND,5811546,Intro Experiment: General explanations,complete,,,computer,Desktop or Laptop,Windows 10,Chrome 98.0.4758.82,1280x720,1280x577,Part 1 completed,Pics_Only_Dutch,5,Part 1 completed,,Accuracy_level_1,,"<div style=""font-size:60px;"">  </div>",,,,html-keyboard-response,16,104039,0.0-1.3-0.7,,,,,,,
18,1645289561982,19/02/2022 16:52:41,1645289562927,1,19/02/2022 17:52:42,73265,15,task-onds,,19605813,BLIND,5811546,Intro Experiment: General explanations,complete,,,computer,Desktop or Laptop,Windows 10,Chrome 98.0.4758.82,1280x720,1280x577,Part 1 completed,Pics_Only_Dutch,5,Part 1 completed,,Accuracy_level_1,449.80000001192093,/task/320041/5/asset/truck.jpg,,,f,image-keyboard-response,17,105543,0.0-1.3-1.7,,,test,,0.3181818181818182,,0.21841666666666668
1,1645202802199,18/02/2022 16:46:42,1645202801597,1,18/02/2022 17:46:41,73265,15,task-onds,,19575880,BLIND,5794738,Intro Experiment: General explanations,complete,,,computer,Desktop or Laptop,Mac OS 10.15.7,Chrome 97.0.4692.99,1440x900,1440x686,Part 1 completed,Pics_Only_Dutch,5,Part 1 completed,,Accuracy_level_1,3949001,,,,,instructions,0,4399454,0.0-0.0,,,,,,,
2,1645202802340,18/02/2022 16:46:42,1645202801726,1,18/02/2022 17:46:41,73265,15,task-onds,,19575880,BLIND,5794738,Intro Experiment: General explanations,complete,,,computer,Desktop or Laptop,Mac OS 10.15.7,Chrome 97.0.4692.99,1440x900,1440x686,Part 1 completed,Pics_Only_Dutch,5,Part 1 completed,,Accuracy_level_1,,"<div style=""font-size:60px;"">  </div>",,,,html-keyboard-response,1,4399583,0.0-1.0-0.0,,,,,,,
3,1645202803366,18/02/2022 16:46:43,1645202803236,1,18/02/2022 17:46:43,73265,15,task-onds,,19575880,BLIND,5794738,Intro Experiment: General explanations,complete,,,computer,Desktop or Laptop,Mac OS 10.15.7,Chrome 97.0.4692.99,1440x900,1440x686,Part 1 completed,Pics_Only_Dutch,5,Part 1 completed,,Accuracy_level_1,1296.6000000089407,/task/320041/5/asset/pear.jpg,,,j,image-keyboard-response,2,4401093,0.0-1.0-1.0,,,test,,-0.175,,0.027316666666666666
4,1645202803605,18/02/2022 16:46:43,1645202803342,1,18/02/2022 17:46:43,73265,15,task-onds,,19575880,BLIND,5794738,Intro Experiment: General explanations,complete,,,computer,Desktop or Laptop,Mac OS 10.15.7,Chrome 97.0.4692.99,1440x900,1440x686,Part 1 completed,Pics_Only_Dutch,5,Part 1 completed,,Accuracy_level_1,,"<div style=""font-size:60px;"">  </div>",,,,html-keyboard-response,3,4401199,0.0-1.0-0.1,,,,,,,
5,1645202804933,18/02/2022 16:46:44,1645202804849,1,18/02/2022 17:46:44,73265,15,task-onds,,19575880,BLIND,5794738,Intro Experiment: General explanations,complete,,,computer,Desktop or Laptop,Mac OS 10.15.7,Chrome 97.0.4692.99,1440x900,1440x686,Part 1 completed,Pics_Only_Dutch,5,Part 1 completed,,Accuracy_level_1,,/task/320041/5/asset/elephant.jpg,,,f,image-keyboard-response,4,4402706,0.0-1.0-1.1,,,test,,-0.35,,0.0542
6,1645202805054,18/02/2022 16:46:45,1645202804953,1,18/02/2022 17:46:44,73265,15,task-onds,,19575880,BLIND,5794738,Intro Experiment: General explanations,complete,,,computer,Desktop or Laptop,Mac OS 10.15.7,Chrome 97.0.4692.99,1440x900,1440x686,Part 1 completed,Pics_Only_Dutch,5,Part 1 completed,,Accuracy_level_1,,"<div style=""font-size:60px;"">  </div>",,,,html-keyboard-response,5,4402811,0.0-1.1-0.2,,,,,,,
7,1645202806554,18/02/2022 16:46:46,1645202806462,1,18/02/2022 17:46:46,73265,15,task-onds,,19575880,BLIND,5794738,Intro Experiment: General explanations,complete,,,computer,Desktop or Laptop,Mac OS 10.15.7,Chrome 97.0.4692.99,1440x900,1440x686,Part 1 completed,Pics_Only_Dutch,5,Part 1 completed,,Accuracy_level_1,297.29999999701977,/task/320041/5/asset/key.png,,,j,image-keyboard-response,6,4404319,0.0-1.1-1.2,,,test,,,,0.08108333333333333
8,1645202806756,18/02/2022 16:46:46,1645202806669,1,18/02/2022 17:46:46,73265,15,task-onds,,19575880,BLIND,5794738,Intro Experiment: General explanations,complete,,,computer,Desktop or Laptop,Mac OS 10.15.7,Chrome 97.0.4692.99,1440x900,1440x686,Part 1 completed,Pics_Only_Dutch,5,Part 1 completed,,Accuracy_level_1,,"<span style=""color:red;font-size:50px;font-weight: bold;"">FOUT!</span>",,,,html-keyboard-response,7,4404527,0.0-1.1-2.2-0.2,,,,,,,
9,1645202806902,18/02/2022 16:46:46,1645202806774,1,18/02/2022 17:46:46,73265,15,task-onds,,19575880,BLIND,5794738,Intro Experiment: General explanations,complete,,,computer,Desktop or Laptop,Mac OS 10.15.7,Chrome 97.0.4692.99,1440x900,1440x686,Part 1 completed,Pics_Only_Dutch,5,Part 1 completed,,Accuracy_level_1,,"<div style=""font-size:60px;"">  </div>",,,,html-keyboard-response,8,4404632,0.0-1.1-0.3,,,,,,,
10,1645202808371,18/02/2022 16:46:48,1645202808283,1,18/02/2022 17:46:48,73265,15,task-onds,,19575880,BLIND,5794738,Intro Experiment: General explanations,complete,,,computer,Desktop or Laptop,Mac OS 10.15.7,Chrome 97.0.4692.99,1440x900,1440x686,Part 1 completed,Pics_Only_Dutch,5,Part 1 completed,,Accuracy_level_1,782.5,/task/320041/5/asset/house.jpg,,,f,image-keyboard-response,9,4406140,0.0-1.1-1.3,,,test,,0.4666666666666666,,0.11143333333333333
11,1645202808460,18/02/2022 16:46:48,1645202808388,1,18/02/2022 17:46:48,73265,15,task-onds,,19575880,BLIND,5794738,Intro Experiment: General explanations,complete,,,computer,Desktop or Laptop,Mac OS 10.15.7,Chrome 97.0.4692.99,1440x900,1440x686,Part 1 completed,Pics_Only_Dutch,5,Part 1 completed,,Accuracy_level_1,,"<div style=""font-size:60px;"">  </div>",,,,html-keyboard-response,10,4406246,0.0-1.2-0.4,,,,,,,
12,1645202809980,18/02/2022 16:46:49,1645202809896,1,18/02/2022 17:46:49,73265,15,task-onds,,19575880,BLIND,5794738,Intro Experiment: General explanations,complete,,,computer,Desktop or Laptop,Mac OS 10.15.7,Chrome 97.0.4692.99,1440x900,1440x686,Part 1 completed,Pics_Only_Dutch,5,Part 1 completed,,Accuracy_level_1,721.7000000029802,/task/320041/5/asset/comb.jpg,,,j,image-keyboard-response,11,4407754,0.0-1.2-1.4,,,test,,0.42000000000000004,,0.13831666666666667
13,1645202810074,18/02/2022 16:46:50,1645202810001,1,18/02/2022 17:46:50,73265,15,task-onds,,19575880,BLIND,5794738,Intro Experiment: General explanations,complete,,,computer,Desktop or Laptop,Mac OS 10.15.7,Chrome 97.0.4692.99,1440x900,1440x686,Part 1 completed,Pics_Only_Dutch,5,Part 1 completed,,Accuracy_level_1,,"<div style=""font-size:60px;"">  </div>",,,,html-keyboard-response,12,4407859,0.0-1.2-0.5,,,,,,,
14,1645202811777,18/02/2022 16:46:51,1645202811509,1,18/02/2022 17:46:51,73265,15,task-onds,,19575880,BLIND,5794738,Intro Experiment: General explanations,complete,,,computer,Desktop or Laptop,Mac OS 10.15.7,Chrome 97.0.4692.99,1440x900,1440x686,Part 1 completed,Pics_Only_Dutch,5,Part 1 completed,,Accuracy_level_1,637.3000000119209,/task/320041/5/asset/elephant.jpg,,,f,image-keyboard-response,13,4409367,0.0-1.2-1.5,,,test,,0.39999999999999997,,0.1652
15,1645202811980,18/02/2022 16:46:51,1645202811615,1,18/02/2022 17:46:51,73265,15,task-onds,,19575880,BLIND,5794738,Intro Experiment: General explanations,complete,,,computer,Desktop or Laptop,Mac OS 10.15.7,Chrome 97.0.4692.99,1440x900,1440x686,Part 1 completed,Pics_Only_Dutch,5,Part 1 completed,,Accuracy_level_1,,"<div style=""font-size:60px;"">  </div>",,,,html-keyboard-response,14,4409473,0.0-1.3-0.6,,,,,,,
16,1645202813241,18/02/2022 16:46:53,1645202813120,1,18/02/2022 17:46:53,73265,15,task-onds,,19575880,BLIND,5794738,Intro Experiment: General explanations,complete,,,computer,Desktop or Laptop,Mac OS 10.15.7,Chrome 97.0.4692.99,1440x900,1440x686,Part 1 completed,Pics_Only_Dutch,5,Part 1 completed,,Accuracy_level_1,951.5999999940395,/task/320041/5/asset/plane.jpg,,,f,image-keyboard-response,15,4410978,0.0-1.3-1.6,,,test,,0.3888888888888889,,0.19205
17,1645202813308,18/02/2022 16:46:53,1645202813225,1,18/02/2022 17:46:53,73265,15,task-onds,,19575880,BLIND,5794738,Intro Experiment: General explanations,complete,,,computer,Desktop or Laptop,Mac OS 10.15.7,Chrome 97.0.4692.99,1440x900,1440x686,Part 1 completed,Pics_Only_Dutch,5,Part 1 completed,,Accuracy_level_1,,"<div style=""font-size:60px;"">  </div>",,,,html-keyboard-response,16,4411083,0.0-1.3-0.7,,,,,,,
18,1645202814808,18/02/2022 16:46:54,1645202814731,1,18/02/2022 17:46:54,73265,15,task-onds,,19575880,BLIND,5794738,Intro Experiment: General explanations,complete,,,computer,Desktop or Laptop,Mac OS 10.15.7,Chrome 97.0.4692.99,1440x900,1440x686,Part 1 completed,Pics_Only_Dutch,5,Part 1 completed,,Accuracy_level_1,594.2000000029802,/task/320041/5/asset/plane.jpg,,,f,image-keyboard-response,17,4412588,0.0-1.3-1.7,,,test,,0.38181818181818183,,0.2189
1,1645124087730,17/02/2022 18:54:47,1645124087914,1,17/02/2022 19:54:47,73265,15,task-onds,,19548404,BLIND,5768112,Intro Experiment: General explanations,complete,,,computer,Desktop or Laptop,Windows 10,Edge 98.0.1108.50,1600x900,1600x789,Part 1 completed,Pics_Only_Dutch,5,Part 1 completed,,Accuracy_level_1,46290.19999998808,,,,,instructions,0,46305,0.0-0.0,,,,,,,
2,1645124087829,17/02/2022 18:54:47,1645124088078,1,17/02/2022 19:54:48,73265,15,task-onds,,19548404,BLIND,5768112,Intro Experiment: General explanations,complete,,,computer,Desktop or Laptop,Windows 10,Edge 98.0.1108.50,1600x900,1600x789,Part 1 completed,Pics_Only_Dutch,5,Part 1 completed,,Accuracy_level_1,,"<div style=""font-size:60px;"">  </div>",,,,html-keyboard-response,1,46470,0.0-1.0-0.0,,,,,,,
3,1645124089330,17/02/2022 18:54:49,1645124089610,1,17/02/2022 19:54:49,73265,15,task-onds,,19548404,BLIND,5768112,Intro Experiment: General explanations,complete,,,computer,Desktop or Laptop,Windows 10,Edge 98.0.1108.50,1600x900,1600x789,Part 1 completed,Pics_Only_Dutch,5,Part 1 completed,,Accuracy_level_1,1450,/task/320041/5/asset/glass.jpg,,,j,image-keyboard-response,2,47999,0.0-1.0-1.0,,,test,,-0.175,,0.028266666666666666
4,1645124089449,17/02/2022 18:54:49,1645124089737,1,17/02/2022 19:54:49,73265,15,task-onds,,19548404,BLIND,5768112,Intro Experiment: General explanations,complete,,,computer,Desktop or Laptop,Windows 10,Edge 98.0.1108.50,1600x900,1600x789,Part 1 completed,Pics_Only_Dutch,5,Part 1 completed,,Accuracy_level_1,,"<div style=""font-size:60px;"">  </div>",,,,html-keyboard-response,3,48130,0.0-1.0-0.1,,,,,,,
5,1645124090959,17/02/2022 18:54:50,1645124091257,1,17/02/2022 19:54:51,73265,15,task-onds,,19548404,BLIND,5768112,Intro Experiment: General explanations,complete,,,computer,Desktop or Laptop,Windows 10,Edge 98.0.1108.50,1600x900,1600x789,Part 1 completed,Pics_Only_Dutch,5,Part 1 completed,,Accuracy_level_1,977.9000000059605,/task/320041/5/asset/comb.jpg,,,j,image-keyboard-response,4,49649,0.0-1.0-1.1,,,test,,-0.7,,0.055733333333333336
6,1645124091074,17/02/2022 18:54:51,1645124091383,1,17/02/2022 19:54:51,73265,15,task-onds,,19548404,BLIND,5768112,Intro Experiment: General explanations,complete,,,computer,Desktop or Laptop,Windows 10,Edge 98.0.1108.50,1600x900,1600x789,Part 1 completed,Pics_Only_Dutch,5,Part 1 completed,,Accuracy_level_1,,"<div style=""font-size:60px;"">  </div>",,,,html-keyboard-response,5,49776,0.0-1.1-0.2,,,,,,,
7,1645124092591,17/02/2022 18:54:52,1645124092892,1,17/02/2022 19:54:52,73265,15,task-onds,,19548404,BLIND,5768112,Intro Experiment: General explanations,complete,,,computer,Desktop or Laptop,Windows 10,Edge 98.0.1108.50,1600x900,1600x789,Part 1 completed,Pics_Only_Dutch,5,Part 1 completed,,Accuracy_level_1,,/task/320041/5/asset/key.png,,,j,image-keyboard-response,6,51285,0.0-1.1-1.2,,,test,,,,0.08298333333333334
8,1645124092811,17/02/2022 18:54:52,1645124093108,1,17/02/2022 19:54:53,73265,15,task-onds,,19548404,BLIND,5768112,Intro Experiment: General explanations,complete,,,computer,Desktop or Laptop,Windows 10,Edge 98.0.1108.50,1600x900,1600x789,Part 1 completed,Pics_Only_Dutch,5,Part 1 completed,,Accuracy_level_1,,"<span style=""color:red;font-size:50px;font-weight: bold;"">FOUT!</span>",,,,html-keyboard-response,7,51501,0.0-1.1-2.2-0.2,,,,,,,
9,1645124092929,17/02/2022 18:54:52,1645124093230,1,17/02/2022 19:54:53,73265,15,task-onds,,19548404,BLIND,5768112,Intro Experiment: General explanations,complete,,,computer,Desktop or Laptop,Windows 10,Edge 98.0.1108.50,1600x900,1600x789,Part 1 completed,Pics_Only_Dutch,5,Part 1 completed,,Accuracy_level_1,,"<div style=""font-size:60px;"">  </div>",,,,html-keyboard-response,8,51622,0.0-1.1-0.3,,,,,,,
10,1645124094450,17/02/2022 18:54:54,1645124094752,1,17/02/2022 19:54:54,73265,15,task-onds,,19548404,BLIND,5768112,Intro Experiment: General explanations,complete,,,computer,Desktop or Laptop,Windows 10,Edge 98.0.1108.50,1600x900,1600x789,Part 1 completed,Pics_Only_Dutch,5,Part 1 completed,,Accuracy_level_1,1078.9000000059605,/task/320041/5/asset/plane.jpg,,,f,image-keyboard-response,9,53144,0.0-1.1-1.3,,,test,,0.7000000000000001,,0.11398333333333334
11,1645124094592,17/02/2022 18:54:54,1645124094881,1,17/02/2022 19:54:54,73265,15,task-onds,,19548404,BLIND,5768112,Intro Experiment: General explanations,complete,,,computer,Desktop or Laptop,Windows 10,Edge 98.0.1108.50,1600x900,1600x789,Part 1 completed,Pics_Only_Dutch,5,Part 1 completed,,Accuracy_level_1,,"<div style=""font-size:60px;"">  </div>",,,,html-keyboard-response,10,53273,0.0-1.2-0.4,,,,,,,
12,1645124096140,17/02/2022 18:54:56,1645124096446,1,17/02/2022 19:54:56,73265,15,task-onds,,19548404,BLIND,5768112,Intro Experiment: General explanations,complete,,,computer,Desktop or Laptop,Windows 10,Edge 98.0.1108.50,1600x900,1600x789,Part 1 completed,Pics_Only_Dutch,5,Part 1 completed,,Accuracy_level_1,1184,/task/320041/5/asset/truck.jpg,,,f,image-keyboard-response,11,54798,0.0-1.2-1.4,,,test,,0.5599999999999999,,0.14221666666666666
13,1645124096250,17/02/2022 18:54:56,1645124096557,1,17/02/2022 19:54:56,73265,15,task-onds,,19548404,BLIND,5768112,Intro Experiment: General explanations,complete,,,computer,Desktop or Laptop,Windows 10,Edge 98.0.1108.50,1600x900,1600x789,Part 1 completed,Pics_Only_Dutch,5,Part 1 completed,,Accuracy_level_1,,"<div style=""font-size:60px;"">  </div>",,,,html-keyboard-response,12,54951,0.0-1.2-0.5,,,,,,,
14,1645124097765,17/02/2022 18:54:57,1645124098074,1,17/02/2022 19:54:58,73265,15,task-onds,,19548404,BLIND,5768112,Intro Experiment: General explanations,complete,,,computer,Desktop or Laptop,Windows 10,Edge 98.0.1108.50,1600x900,1600x789,Part 1 completed,Pics_Only_Dutch,5,Part 1 completed,,Accuracy_level_1,912.1000000238419,/task/320041/5/asset/comb.jpg,,,j,image-keyboard-response,13,56463,0.0-1.2-1.5,,,test,,0.5,,0.16933333333333334
15,1645124097888,17/02/2022 18:54:57,1645124098193,1,17/02/2022 19:54:58,73265,15,task-onds,,19548404,BLIND,5768112,Intro Experiment: General explanations,complete,,,computer,Desktop or Laptop,Windows 10,Edge 98.0.1108.50,1600x900,1600x789,Part 1 completed,Pics_Only_Dutch,5,Part 1 completed,,Accuracy_level_1,,"<div style=""font-size:60px;"">  </div>",,,,html-keyboard-response,14,56586,0.0-1.3-0.6,,,,,,,
16,1645124099439,17/02/2022 18:54:59,1645124099746,1,17/02/2022 19:54:59,73265,15,task-onds,,19548404,BLIND,5768112,Intro Experiment: General explanations,complete,,,computer,Desktop or Laptop,Windows 10,Edge 98.0.1108.50,1600x900,1600x789,Part 1 completed,Pics_Only_Dutch,5,Part 1 completed,,Accuracy_level_1,848.4000000059605,/task/320041/5/asset/plane.jpg,,,f,image-keyboard-response,15,58098,0.0-1.3-1.6,,,test,,0.4666666666666667,,0.19721666666666668
17,1645124099562,17/02/2022 18:54:59,1645124099867,1,17/02/2022 19:54:59,73265,15,task-onds,,19548404,BLIND,5768112,Intro Experiment: General explanations,complete,,,computer,Desktop or Laptop,Windows 10,Edge 98.0.1108.50,1600x900,1600x789,Part 1 completed,Pics_Only_Dutch,5,Part 1 completed,,Accuracy_level_1,,"<div style=""font-size:60px;"">  </div>",,,,html-keyboard-response,16,58259,0.0-1.3-0.7,,,,,,,
18,1645124101099,17/02/2022 18:55:01,1645124101394,1,17/02/2022 19:55:01,73265,15,task-onds,,19548404,BLIND,5768112,Intro Experiment: General explanations,complete,,,computer,Desktop or Laptop,Windows 10,Edge 98.0.1108.50,1600x900,1600x789,Part 1 completed,Pics_Only_Dutch,5,Part 1 completed,,Accuracy_level_1,948.4000000059605,/task/320041/5/asset/house.jpg,,,f,image-keyboard-response,17,59785,0.0-1.3-1.7,,,test,,0.4454545454545455,,0.22468333333333335
1,1645122856821,17/02/2022 18:34:16,1645122856682,1,17/02/2022 19:34:16,73265,15,task-onds,,19547798,BLIND,5785034,Intro Experiment: General explanations,complete,,,computer,Desktop or Laptop,Mac OS 10.15.7,Safari 15.3,1440x900,1440x820,Part 1 completed,Pics_Only_Dutch,5,Part 1 completed,,Accuracy_level_1,23968,,,,,instructions,0,23976,0.0-0.0,,,,,,,
2,1645122856907,17/02/2022 18:34:16,1645122856796,1,17/02/2022 19:34:16,73265,15,task-onds,,19547798,BLIND,5785034,Intro Experiment: General explanations,complete,,,computer,Desktop or Laptop,Mac OS 10.15.7,Safari 15.3,1440x900,1440x820,Part 1 completed,Pics_Only_Dutch,5,Part 1 completed,,Accuracy_level_1,,"<div style=""font-size:60px;"">  </div>",,,,html-keyboard-response,1,24091,0.0-1.0-0.0,,,,,,,
3,1645122858394,17/02/2022 18:34:18,1645122858302,1,17/02/2022 19:34:18,73265,15,task-onds,,19547798,BLIND,5785034,Intro Experiment: General explanations,complete,,,computer,Desktop or Laptop,Mac OS 10.15.7,Safari 15.3,1440x900,1440x820,Part 1 completed,Pics_Only_Dutch,5,Part 1 completed,,Accuracy_level_1,733,/task/320041/5/asset/pear.jpg,,,j,image-keyboard-response,2,25596,0.0-1.0-1.0,,,test,,-0.175,,0.027
