Event Index,UTC Timestamp,UTC Date,Local Timestamp,Local Timezone,Local Date,Experiment ID,Experiment Version,Tree Node Key,Repeat Key,Schedule ID,Participant Public ID,Participant Private ID,Participant Starting Group,Participant Status,Participant Completion Code,Participant External Session ID,Participant Device Type,Participant Device,Participant OS,Participant Browser,Participant Monitor Size,Participant Viewport Size,Checkpoint,Task Name,Task Version,checkpoint-yiku,checkpoint-gn26,randomiser-2vg5,Reaction Time,Stimulus,Key Press,Test Part,Correct Response,Trial Type,Trial Index,Time Elapsed,Internal Node ID,Correct,match,phase,correct_resp,prop_correct,accuracy_color_trial,minutes
1,1644859928103,14/02/2022 17:32:08,1644859926076,1,14/02/2022 18:32:06,73265,15,task-fatb,,19437747,BLIND,5768823,Intro Experiment: General explanations,complete,,,computer,Desktop or Laptop,Windows 10,Edge 98.0.1108.50,1536x864,1536x754,Part 1 completed,Colors_Only_Dutch,6,Part 1 completed,,Accuracy_level_1,19176.699999999255,,,,,instructions,0,19182,0.0-0.0,,,,,,,
2,1644859928208,14/02/2022 17:32:08,1644859926215,1,14/02/2022 18:32:06,73265,15,task-fatb,,19437747,BLIND,5768823,Intro Experiment: General explanations,complete,,,computer,Desktop or Laptop,Windows 10,Edge 98.0.1108.50,1536x864,1536x754,Part 1 completed,Colors_Only_Dutch,6,Part 1 completed,,Accuracy_level_1,,"<div style=""font-size:60px;"">  </div>",,,,html-keyboard-response,1,19321,0.0-1.0-0.0,,,,,,,
3,1644859929682,14/02/2022 17:32:09,1644859927725,1,14/02/2022 18:32:07,73265,15,task-fatb,,19437747,BLIND,5768823,Intro Experiment: General explanations,complete,,,computer,Desktop or Laptop,Windows 10,Edge 98.0.1108.50,1536x864,1536x754,Part 1 completed,Colors_Only_Dutch,6,Part 1 completed,,Accuracy_level_1,,/task/320040/6/asset/green.png,,,,image-keyboard-response,2,20831,0.0-1.0-1.0,,1,test, ,0,,0.027483333333333332
4,1644859929802,14/02/2022 17:32:09,1644859927832,1,14/02/2022 18:32:07,73265,15,task-fatb,,19437747,BLIND,5768823,Intro Experiment: General explanations,complete,,,computer,Desktop or Laptop,Windows 10,Edge 98.0.1108.50,1536x864,1536x754,Part 1 completed,Colors_Only_Dutch,6,Part 1 completed,,Accuracy_level_1,,"<div style=""font-size:60px;"">  </div>",,,,html-keyboard-response,3,20939,0.0-1.0-0.1,,,,,,,
5,1644859931314,14/02/2022 17:32:11,1644859929338,1,14/02/2022 18:32:09,73265,15,task-fatb,,19437747,BLIND,5768823,Intro Experiment: General explanations,complete,,,computer,Desktop or Laptop,Windows 10,Edge 98.0.1108.50,1536x864,1536x754,Part 1 completed,Colors_Only_Dutch,6,Part 1 completed,,Accuracy_level_1,,/task/320040/6/asset/pink.png,,,,image-keyboard-response,4,22445,0.0-1.0-1.1,,,test,,0.43333333333333335,1,0.05436666666666667
6,1644859931443,14/02/2022 17:32:11,1644859929451,1,14/02/2022 18:32:09,73265,15,task-fatb,,19437747,BLIND,5768823,Intro Experiment: General explanations,complete,,,computer,Desktop or Laptop,Windows 10,Edge 98.0.1108.50,1536x864,1536x754,Part 1 completed,Colors_Only_Dutch,6,Part 1 completed,,Accuracy_level_1,,"<div style=""font-size:60px;"">  </div>",,,,html-keyboard-response,5,22558,0.0-1.0-0.2,,,,,,,
7,1644859932939,14/02/2022 17:32:12,1644859930962,1,14/02/2022 18:32:10,73265,15,task-fatb,,19437747,BLIND,5768823,Intro Experiment: General explanations,complete,,,computer,Desktop or Laptop,Windows 10,Edge 98.0.1108.50,1536x864,1536x754,Part 1 completed,Colors_Only_Dutch,6,Part 1 completed,,Accuracy_level_1,,/task/320040/6/asset/blue.png,,,,image-keyboard-response,6,24069,0.0-1.0-1.2,,,test,,0.52,1,0.08143333333333333
8,1644859933036,14/02/2022 17:32:13,1644859931073,1,14/02/2022 18:32:11,73265,15,task-fatb,,19437747,BLIND,5768823,Intro Experiment: General explanations,complete,,,computer,Desktop or Laptop,Windows 10,Edge 98.0.1108.50,1536x864,1536x754,Part 1 completed,Colors_Only_Dutch,6,Part 1 completed,,Accuracy_level_1,,"<div style=""font-size:60px;"">  </div>",,,,html-keyboard-response,7,24180,0.0-1.0-0.3,,,,,,,
9,1644859934565,14/02/2022 17:32:14,1644859932578,1,14/02/2022 18:32:12,73265,15,task-fatb,,19437747,BLIND,5768823,Intro Experiment: General explanations,complete,,,computer,Desktop or Laptop,Windows 10,Edge 98.0.1108.50,1536x864,1536x754,Part 1 completed,Colors_Only_Dutch,6,Part 1 completed,,Accuracy_level_1,,/task/320040/6/asset/pink.png,,,,image-keyboard-response,8,25685,0.0-1.0-1.3,,,test,,0.5571428571428572,1,0.10836666666666667
10,1644859934662,14/02/2022 17:32:14,1644859932695,1,14/02/2022 18:32:12,73265,15,task-fatb,,19437747,BLIND,5768823,Intro Experiment: General explanations,complete,,,computer,Desktop or Laptop,Windows 10,Edge 98.0.1108.50,1536x864,1536x754,Part 1 completed,Colors_Only_Dutch,6,Part 1 completed,,Accuracy_level_1,,"<div style=""font-size:60px;"">  </div>",,,,html-keyboard-response,9,25801,0.0-1.0-0.4,,,,,,,
11,1644859936174,14/02/2022 17:32:16,1644859934210,1,14/02/2022 18:32:14,73265,15,task-fatb,,19437747,BLIND,5768823,Intro Experiment: General explanations,complete,,,computer,Desktop or Laptop,Windows 10,Edge 98.0.1108.50,1536x864,1536x754,Part 1 completed,Colors_Only_Dutch,6,Part 1 completed,,Accuracy_level_1,,/task/320040/6/asset/yellow.png,,,,image-keyboard-response,10,27317,0.0-1.0-1.4,,,test,,0.5777777777777778,1,0.13556666666666667
12,1644859936288,14/02/2022 17:32:16,1644859934327,1,14/02/2022 18:32:14,73265,15,task-fatb,,19437747,BLIND,5768823,Intro Experiment: General explanations,complete,,,computer,Desktop or Laptop,Windows 10,Edge 98.0.1108.50,1536x864,1536x754,Part 1 completed,Colors_Only_Dutch,6,Part 1 completed,,Accuracy_level_1,,"<div style=""font-size:60px;"">  </div>",,,,html-keyboard-response,11,27434,0.0-1.0-0.5,,,,,,,
13,1644859937816,14/02/2022 17:32:17,1644859935840,1,14/02/2022 18:32:15,73265,15,task-fatb,,19437747,BLIND,5768823,Intro Experiment: General explanations,complete,,,computer,Desktop or Laptop,Windows 10,Edge 98.0.1108.50,1536x864,1536x754,Part 1 completed,Colors_Only_Dutch,6,Part 1 completed,,Accuracy_level_1,,/task/320040/6/asset/black.png,,,,image-keyboard-response,12,28947,0.0-1.0-1.5,,,test,,0.5909090909090909,1,0.16273333333333334
14,1644859937925,14/02/2022 17:32:17,1644859935970,1,14/02/2022 18:32:15,73265,15,task-fatb,,19437747,BLIND,5768823,Intro Experiment: General explanations,complete,,,computer,Desktop or Laptop,Windows 10,Edge 98.0.1108.50,1536x864,1536x754,Part 1 completed,Colors_Only_Dutch,6,Part 1 completed,,Accuracy_level_1,,"<div style=""font-size:60px;"">  </div>",,,,html-keyboard-response,13,29077,0.0-1.0-0.6,,,,,,,
15,1644859939441,14/02/2022 17:32:19,1644859937476,1,14/02/2022 18:32:17,73265,15,task-fatb,,19437747,BLIND,5768823,Intro Experiment: General explanations,complete,,,computer,Desktop or Laptop,Windows 10,Edge 98.0.1108.50,1536x864,1536x754,Part 1 completed,Colors_Only_Dutch,6,Part 1 completed,,Accuracy_level_1,494.80000000074506,/task/320040/6/asset/black.png,,,,image-keyboard-response,14,30583,0.0-1.0-1.6,,1,test, ,0.6,1,0.19
16,1644859939561,14/02/2022 17:32:19,1644859937588,1,14/02/2022 18:32:17,73265,15,task-fatb,,19437747,BLIND,5768823,Intro Experiment: General explanations,complete,,,computer,Desktop or Laptop,Windows 10,Edge 98.0.1108.50,1536x864,1536x754,Part 1 completed,Colors_Only_Dutch,6,Part 1 completed,,Accuracy_level_1,,"<div style=""font-size:60px;"">  </div>",,,,html-keyboard-response,15,30694,0.0-1.0-0.7,,,,,,,
17,1644859941253,14/02/2022 17:32:21,1644859939098,1,14/02/2022 18:32:19,73265,15,task-fatb,,19437747,BLIND,5768823,Intro Experiment: General explanations,complete,,,computer,Desktop or Laptop,Windows 10,Edge 98.0.1108.50,1536x864,1536x754,Part 1 completed,Colors_Only_Dutch,6,Part 1 completed,,Accuracy_level_1,663.3000000007451,/task/320040/6/asset/black.png,,,,image-keyboard-response,16,32205,0.0-1.0-1.7,,1,test, ,0.6066666666666667,1,0.21703333333333333
1,1645025437239,16/02/2022 15:30:37,1645025437122,1,16/02/2022 16:30:37,73265,15,task-fatb,,19499151,BLIND,5788709,Intro Experiment: General explanations,complete,,,computer,Desktop or Laptop,Mac OS 10.15.7,Chrome 98.0.4758.80,1440x900,1440x821,Part 1 completed,Colors_Only_Dutch,6,Part 1 completed,,Accuracy_level_1,40075.90000000596,,,,,instructions,0,40078,0.0-0.0,,,,,,,
2,1645025437321,16/02/2022 15:30:37,1645025437244,1,16/02/2022 16:30:37,73265,15,task-fatb,,19499151,BLIND,5788709,Intro Experiment: General explanations,complete,,,computer,Desktop or Laptop,Mac OS 10.15.7,Chrome 98.0.4758.80,1440x900,1440x821,Part 1 completed,Colors_Only_Dutch,6,Part 1 completed,,Accuracy_level_1,,"<div style=""font-size:60px;"">  </div>",,,,html-keyboard-response,1,40200,0.0-1.0-0.0,,,,,,,
3,1645025438837,16/02/2022 15:30:38,1645025438752,1,16/02/2022 16:30:38,73265,15,task-fatb,,19499151,BLIND,5788709,Intro Experiment: General explanations,complete,,,computer,Desktop or Laptop,Mac OS 10.15.7,Chrome 98.0.4758.80,1440x900,1440x821,Part 1 completed,Colors_Only_Dutch,6,Part 1 completed,,Accuracy_level_1,,/task/320040/6/asset/green.png,,,,image-keyboard-response,2,41706,0.0-1.0-1.0,,1,test, ,0,,0.027166666666666665
4,1645025438911,16/02/2022 15:30:38,1645025438857,1,16/02/2022 16:30:38,73265,15,task-fatb,,19499151,BLIND,5788709,Intro Experiment: General explanations,complete,,,computer,Desktop or Laptop,Mac OS 10.15.7,Chrome 98.0.4758.80,1440x900,1440x821,Part 1 completed,Colors_Only_Dutch,6,Part 1 completed,,Accuracy_level_1,,"<div style=""font-size:60px;"">  </div>",,,,html-keyboard-response,3,41813,0.0-1.0-0.1,,,,,,,
5,1645025440419,16/02/2022 15:30:40,1645025440361,1,16/02/2022 16:30:40,73265,15,task-fatb,,19499151,BLIND,5788709,Intro Experiment: General explanations,complete,,,computer,Desktop or Laptop,Mac OS 10.15.7,Chrome 98.0.4758.80,1440x900,1440x821,Part 1 completed,Colors_Only_Dutch,6,Part 1 completed,,Accuracy_level_1,1046.6000000089407,/task/320040/6/asset/green.png,,,,image-keyboard-response,4,43317,0.0-1.0-1.1,,1,test, ,0.43333333333333335,1,0.053983333333333335
6,1645025440539,16/02/2022 15:30:40,1645025440468,1,16/02/2022 16:30:40,73265,15,task-fatb,,19499151,BLIND,5788709,Intro Experiment: General explanations,complete,,,computer,Desktop or Laptop,Mac OS 10.15.7,Chrome 98.0.4758.80,1440x900,1440x821,Part 1 completed,Colors_Only_Dutch,6,Part 1 completed,,Accuracy_level_1,,"<div style=""font-size:60px;"">  </div>",,,,html-keyboard-response,5,43423,0.0-1.0-0.2,,,,,,,
7,1645025442044,16/02/2022 15:30:42,1645025441977,1,16/02/2022 16:30:41,73265,15,task-fatb,,19499151,BLIND,5788709,Intro Experiment: General explanations,complete,,,computer,Desktop or Laptop,Mac OS 10.15.7,Chrome 98.0.4758.80,1440x900,1440x821,Part 1 completed,Colors_Only_Dutch,6,Part 1 completed,,Accuracy_level_1,732.9000000059605,/task/320040/6/asset/green.png,,,,image-keyboard-response,6,44933,0.0-1.0-1.2,,1,test, ,0.52,1,0.08091666666666666
8,1645025442140,16/02/2022 15:30:42,1645025442081,1,16/02/2022 16:30:42,73265,15,task-fatb,,19499151,BLIND,5788709,Intro Experiment: General explanations,complete,,,computer,Desktop or Laptop,Mac OS 10.15.7,Chrome 98.0.4758.80,1440x900,1440x821,Part 1 completed,Colors_Only_Dutch,6,Part 1 completed,,Accuracy_level_1,,"<div style=""font-size:60px;"">  </div>",,,,html-keyboard-response,7,45037,0.0-1.0-0.3,,,,,,,
9,1645025443653,16/02/2022 15:30:43,1645025443587,1,16/02/2022 16:30:43,73265,15,task-fatb,,19499151,BLIND,5788709,Intro Experiment: General explanations,complete,,,computer,Desktop or Laptop,Mac OS 10.15.7,Chrome 98.0.4758.80,1440x900,1440x821,Part 1 completed,Colors_Only_Dutch,6,Part 1 completed,,Accuracy_level_1,356.5,/task/320040/6/asset/green.png,,,,image-keyboard-response,8,46543,0.0-1.0-1.3,,1,test, ,0.5571428571428572,1,0.10775
10,1645025443747,16/02/2022 15:30:43,1645025443693,1,16/02/2022 16:30:43,73265,15,task-fatb,,19499151,BLIND,5788709,Intro Experiment: General explanations,complete,,,computer,Desktop or Laptop,Mac OS 10.15.7,Chrome 98.0.4758.80,1440x900,1440x821,Part 1 completed,Colors_Only_Dutch,6,Part 1 completed,,Accuracy_level_1,,"<div style=""font-size:60px;"">  </div>",,,,html-keyboard-response,9,46649,0.0-1.0-0.4,,,,,,,
11,1645025445262,16/02/2022 15:30:45,1645025445198,1,16/02/2022 16:30:45,73265,15,task-fatb,,19499151,BLIND,5788709,Intro Experiment: General explanations,complete,,,computer,Desktop or Laptop,Mac OS 10.15.7,Chrome 98.0.4758.80,1440x900,1440x821,Part 1 completed,Colors_Only_Dutch,6,Part 1 completed,,Accuracy_level_1,358.6000000089407,/task/320040/6/asset/green.png,,,,image-keyboard-response,10,48154,0.0-1.0-1.4,,1,test, ,0.5777777777777778,1,0.1346
12,1645025445368,16/02/2022 15:30:45,1645025445304,1,16/02/2022 16:30:45,73265,15,task-fatb,,19499151,BLIND,5788709,Intro Experiment: General explanations,complete,,,computer,Desktop or Laptop,Mac OS 10.15.7,Chrome 98.0.4758.80,1440x900,1440x821,Part 1 completed,Colors_Only_Dutch,6,Part 1 completed,,Accuracy_level_1,,"<div style=""font-size:60px;"">  </div>",,,,html-keyboard-response,11,48260,0.0-1.0-0.5,,,,,,,
13,1645025446874,16/02/2022 15:30:46,1645025446814,1,16/02/2022 16:30:46,73265,15,task-fatb,,19499151,BLIND,5788709,Intro Experiment: General explanations,complete,,,computer,Desktop or Laptop,Mac OS 10.15.7,Chrome 98.0.4758.80,1440x900,1440x821,Part 1 completed,Colors_Only_Dutch,6,Part 1 completed,,Accuracy_level_1,408.09999999403954,/task/320040/6/asset/green.png,,,,image-keyboard-response,12,49770,0.0-1.0-1.5,,1,test, ,0.5909090909090909,1,0.16153333333333333
14,1645025446986,16/02/2022 15:30:46,1645025446920,1,16/02/2022 16:30:46,73265,15,task-fatb,,19499151,BLIND,5788709,Intro Experiment: General explanations,complete,,,computer,Desktop or Laptop,Mac OS 10.15.7,Chrome 98.0.4758.80,1440x900,1440x821,Part 1 completed,Colors_Only_Dutch,6,Part 1 completed,,Accuracy_level_1,,"<div style=""font-size:60px;"">  </div>",,,,html-keyboard-response,13,49876,0.0-1.0-0.6,,,,,,,
15,1645025448483,16/02/2022 15:30:48,1645025448424,1,16/02/2022 16:30:48,73265,15,task-fatb,,19499151,BLIND,5788709,Intro Experiment: General explanations,complete,,,computer,Desktop or Laptop,Mac OS 10.15.7,Chrome 98.0.4758.80,1440x900,1440x821,Part 1 completed,Colors_Only_Dutch,6,Part 1 completed,,Accuracy_level_1,533.5999999940395,/task/320040/6/asset/green.png,,,,image-keyboard-response,14,51380,0.0-1.0-1.6,,1,test, ,0.6,1,0.18836666666666665
16,1645025448594,16/02/2022 15:30:48,1645025448530,1,16/02/2022 16:30:48,73265,15,task-fatb,,19499151,BLIND,5788709,Intro Experiment: General explanations,complete,,,computer,Desktop or Laptop,Mac OS 10.15.7,Chrome 98.0.4758.80,1440x900,1440x821,Part 1 completed,Colors_Only_Dutch,6,Part 1 completed,,Accuracy_level_1,,"<div style=""font-size:60px;"">  </div>",,,,html-keyboard-response,15,51486,0.0-1.0-0.7,,,,,,,
17,1645025450100,16/02/2022 15:30:50,1645025450035,1,16/02/2022 16:30:50,73265,15,task-fatb,,19499151,BLIND,5788709,Intro Experiment: General explanations,complete,,,computer,Desktop or Laptop,Mac OS 10.15.7,Chrome 98.0.4758.80,1440x900,1440x821,Part 1 completed,Colors_Only_Dutch,6,Part 1 completed,,Accuracy_level_1,,/task/320040/6/asset/white.png,,,,image-keyboard-response,16,52991,0.0-1.0-1.7,,,test,,0.6066666666666667,1,0.21521666666666667
1,1646653747727,07/03/2022 11:49:07,1646653731730,1,07/03/2022 12:48:51,73265,15,task-fatb,,20139069,BLIND,5971960,Intro Experiment: General explanations,complete,,,computer,Desktop or Laptop,Windows 10,Edge 98.0.1108.43,1600x900,1600x789,Part 1 completed,Colors_Only_Dutch,6,Part 1 completed,,Accuracy_level_1,30150.299999713898,,,,,instructions,0,30155,0.0-0.0,,,,,,,
2,1646653747810,07/03/2022 11:49:07,1646653731854,1,07/03/2022 12:48:51,73265,15,task-fatb,,20139069,BLIND,5971960,Intro Experiment: General explanations,complete,,,computer,Desktop or Laptop,Windows 10,Edge 98.0.1108.43,1600x900,1600x789,Part 1 completed,Colors_Only_Dutch,6,Part 1 completed,,Accuracy_level_1,,"<div style=""font-size:60px;"">  </div>",,,,html-keyboard-response,1,30280,0.0-1.0-0.0,,,,,,,
3,1646653749274,07/03/2022 11:49:09,1646653733359,1,07/03/2022 12:48:53,73265,15,task-fatb,,20139069,BLIND,5971960,Intro Experiment: General explanations,complete,,,computer,Desktop or Laptop,Windows 10,Edge 98.0.1108.43,1600x900,1600x789,Part 1 completed,Colors_Only_Dutch,6,Part 1 completed,,Accuracy_level_1,,/task/320040/6/asset/green.png,,,,image-keyboard-response,2,31784,0.0-1.0-1.0,,1,test, ,0,,0.027166666666666665
4,1646653749390,07/03/2022 11:49:09,1646653733461,1,07/03/2022 12:48:53,73265,15,task-fatb,,20139069,BLIND,5971960,Intro Experiment: General explanations,complete,,,computer,Desktop or Laptop,Windows 10,Edge 98.0.1108.43,1600x900,1600x789,Part 1 completed,Colors_Only_Dutch,6,Part 1 completed,,Accuracy_level_1,,"<div style=""font-size:60px;"">  </div>",,,,html-keyboard-response,3,31887,0.0-1.0-0.1,,,,,,,
5,1646653750874,07/03/2022 11:49:10,1646653734965,1,07/03/2022 12:48:54,73265,15,task-fatb,,20139069,BLIND,5971960,Intro Experiment: General explanations,complete,,,computer,Desktop or Laptop,Windows 10,Edge 98.0.1108.43,1600x900,1600x789,Part 1 completed,Colors_Only_Dutch,6,Part 1 completed,,Accuracy_level_1,,/task/320040/6/asset/green.png,,,,image-keyboard-response,4,33391,0.0-1.0-1.1,,1,test, ,0,,0.05393333333333333
6,1646653751087,07/03/2022 11:49:11,1646653735168,1,07/03/2022 12:48:55,73265,15,task-fatb,,20139069,BLIND,5971960,Intro Experiment: General explanations,complete,,,computer,Desktop or Laptop,Windows 10,Edge 98.0.1108.43,1600x900,1600x789,Part 1 completed,Colors_Only_Dutch,6,Part 1 completed,,Accuracy_level_1,,"<span style=""color:red;font-size:50px;font-weight: bold;"">FOUT!</span>",,,,html-keyboard-response,5,33594,0.0-1.0-2.1-0.1,,,,,,,
7,1646653751186,07/03/2022 11:49:11,1646653735271,1,07/03/2022 12:48:55,73265,15,task-fatb,,20139069,BLIND,5971960,Intro Experiment: General explanations,complete,,,computer,Desktop or Laptop,Windows 10,Edge 98.0.1108.43,1600x900,1600x789,Part 1 completed,Colors_Only_Dutch,6,Part 1 completed,,Accuracy_level_1,,"<div style=""font-size:60px;"">  </div>",,,,html-keyboard-response,6,33697,0.0-1.0-0.2,,,,,,,
8,1646653752689,07/03/2022 11:49:12,1646653736775,1,07/03/2022 12:48:56,73265,15,task-fatb,,20139069,BLIND,5971960,Intro Experiment: General explanations,complete,,,computer,Desktop or Laptop,Windows 10,Edge 98.0.1108.43,1600x900,1600x789,Part 1 completed,Colors_Only_Dutch,6,Part 1 completed,,Accuracy_level_1,656.5,/task/320040/6/asset/green.png,,,,image-keyboard-response,7,35201,0.0-1.0-1.2,,1,test, ,0.21666666666666667,1,0.0841
9,1646653752787,07/03/2022 11:49:12,1646653736878,1,07/03/2022 12:48:56,73265,15,task-fatb,,20139069,BLIND,5971960,Intro Experiment: General explanations,complete,,,computer,Desktop or Laptop,Windows 10,Edge 98.0.1108.43,1600x900,1600x789,Part 1 completed,Colors_Only_Dutch,6,Part 1 completed,,Accuracy_level_1,,"<div style=""font-size:60px;"">  </div>",,,,html-keyboard-response,8,35304,0.0-1.0-0.3,,,,,,,
10,1646653754299,07/03/2022 11:49:14,1646653738382,1,07/03/2022 12:48:58,73265,15,task-fatb,,20139069,BLIND,5971960,Intro Experiment: General explanations,complete,,,computer,Desktop or Laptop,Windows 10,Edge 98.0.1108.43,1600x900,1600x789,Part 1 completed,Colors_Only_Dutch,6,Part 1 completed,,Accuracy_level_1,,/task/320040/6/asset/pink.png,,,,image-keyboard-response,9,36807,0.0-1.0-1.3,,,test,,0.325,1,0.11088333333333333
11,1646653754408,07/03/2022 11:49:14,1646653738487,1,07/03/2022 12:48:58,73265,15,task-fatb,,20139069,BLIND,5971960,Intro Experiment: General explanations,complete,,,computer,Desktop or Laptop,Windows 10,Edge 98.0.1108.43,1600x900,1600x789,Part 1 completed,Colors_Only_Dutch,6,Part 1 completed,,Accuracy_level_1,,"<div style=""font-size:60px;"">  </div>",,,,html-keyboard-response,10,36913,0.0-1.0-0.4,,,,,,,
12,1646653755909,07/03/2022 11:49:15,1646653739991,1,07/03/2022 12:48:59,73265,15,task-fatb,,20139069,BLIND,5971960,Intro Experiment: General explanations,complete,,,computer,Desktop or Laptop,Windows 10,Edge 98.0.1108.43,1600x900,1600x789,Part 1 completed,Colors_Only_Dutch,6,Part 1 completed,,Accuracy_level_1,772.5,/task/320040/6/asset/pink.png,,,,image-keyboard-response,11,38417,0.0-1.0-1.4,,1,test, ,0.39,1,0.1377
13,1646653756018,07/03/2022 11:49:16,1646653740106,1,07/03/2022 12:49:00,73265,15,task-fatb,,20139069,BLIND,5971960,Intro Experiment: General explanations,complete,,,computer,Desktop or Laptop,Windows 10,Edge 98.0.1108.43,1600x900,1600x789,Part 1 completed,Colors_Only_Dutch,6,Part 1 completed,,Accuracy_level_1,,"<div style=""font-size:60px;"">  </div>",,,,html-keyboard-response,12,38532,0.0-1.0-0.5,,,,,,,
14,1646653757525,07/03/2022 11:49:17,1646653741610,1,07/03/2022 12:49:01,73265,15,task-fatb,,20139069,BLIND,5971960,Intro Experiment: General explanations,complete,,,computer,Desktop or Laptop,Windows 10,Edge 98.0.1108.43,1600x900,1600x789,Part 1 completed,Colors_Only_Dutch,6,Part 1 completed,,Accuracy_level_1,361.59999990463257,/task/320040/6/asset/pink.png,,,,image-keyboard-response,13,40035,0.0-1.0-1.5,,1,test, ,0.43333333333333335,1,0.16468333333333332
15,1646653757627,07/03/2022 11:49:17,1646653741713,1,07/03/2022 12:49:01,73265,15,task-fatb,,20139069,BLIND,5971960,Intro Experiment: General explanations,complete,,,computer,Desktop or Laptop,Windows 10,Edge 98.0.1108.43,1600x900,1600x789,Part 1 completed,Colors_Only_Dutch,6,Part 1 completed,,Accuracy_level_1,,"<div style=""font-size:60px;"">  </div>",,,,html-keyboard-response,14,40139,0.0-1.0-0.6,,,,,,,
16,1646653759144,07/03/2022 11:49:19,1646653743217,1,07/03/2022 12:49:03,73265,15,task-fatb,,20139069,BLIND,5971960,Intro Experiment: General explanations,complete,,,computer,Desktop or Laptop,Windows 10,Edge 98.0.1108.43,1600x900,1600x789,Part 1 completed,Colors_Only_Dutch,6,Part 1 completed,,Accuracy_level_1,,/task/320040/6/asset/black.png,,,,image-keyboard-response,15,41643,0.0-1.0-1.6,,,test,,0.4642857142857143,1,0.19146666666666667
17,1646653759237,07/03/2022 11:49:19,1646653743320,1,07/03/2022 12:49:03,73265,15,task-fatb,,20139069,BLIND,5971960,Intro Experiment: General explanations,complete,,,computer,Desktop or Laptop,Windows 10,Edge 98.0.1108.43,1600x900,1600x789,Part 1 completed,Colors_Only_Dutch,6,Part 1 completed,,Accuracy_level_1,,"<div style=""font-size:60px;"">  </div>",,,,html-keyboard-response,16,41746,0.0-1.0-0.7,,,,,,,
18,1646653760735,07/03/2022 11:49:20,1646653744824,1,07/03/2022 12:49:04,73265,15,task-fatb,,20139069,BLIND,5971960,Intro Experiment: General explanations,complete,,,computer,Desktop or Laptop,Windows 10,Edge 98.0.1108.43,1600x900,1600x789,Part 1 completed,Colors_Only_Dutch,6,Part 1 completed,,Accuracy_level_1,1038.7999997138977,/task/320040/6/asset/black.png,,,,image-keyboard-response,17,43250,0.0-1.0-1.7,,1,test, ,0.4875,1,0.21825
1,1646659698917,07/03/2022 13:28:18,1646659696238,1,07/03/2022 14:28:16,73265,15,task-fatb,,20143849,BLIND,5973327,Intro Experiment: General explanations,complete,,,computer,Desktop or Laptop,Windows 10,Chrome 98.0.4758.102,1920x1080,1920x937,Part 1 completed,Colors_Only_Dutch,6,Part 1 completed,,Accuracy_level_1,35121.59999999404,,,,,instructions,0,35128,0.0-0.0,,,,,,,
2,1646659699000,07/03/2022 13:28:19,1646659696349,1,07/03/2022 14:28:16,73265,15,task-fatb,,20143849,BLIND,5973327,Intro Experiment: General explanations,complete,,,computer,Desktop or Laptop,Windows 10,Chrome 98.0.4758.102,1920x1080,1920x937,Part 1 completed,Colors_Only_Dutch,6,Part 1 completed,,Accuracy_level_1,,"<div style=""font-size:60px;"">  </div>",,,,html-keyboard-response,1,35239,0.0-1.0-0.0,,,,,,,
3,1646659700480,07/03/2022 13:28:20,1646659697852,1,07/03/2022 14:28:17,73265,15,task-fatb,,20143849,BLIND,5973327,Intro Experiment: General explanations,complete,,,computer,Desktop or Laptop,Windows 10,Chrome 98.0.4758.102,1920x1080,1920x937,Part 1 completed,Colors_Only_Dutch,6,Part 1 completed,,Accuracy_level_1,,/task/320040/6/asset/white.png,,,,image-keyboard-response,2,36742,0.0-1.0-1.0,,1,test, ,0,,0.0269
4,1646659700576,07/03/2022 13:28:20,1646659697955,1,07/03/2022 14:28:17,73265,15,task-fatb,,20143849,BLIND,5973327,Intro Experiment: General explanations,complete,,,computer,Desktop or Laptop,Windows 10,Chrome 98.0.4758.102,1920x1080,1920x937,Part 1 completed,Colors_Only_Dutch,6,Part 1 completed,,Accuracy_level_1,,"<div style=""font-size:60px;"">  </div>",,,,html-keyboard-response,3,36846,0.0-1.0-0.1,,,,,,,
5,1646659702064,07/03/2022 13:28:22,1646659699458,1,07/03/2022 14:28:19,73265,15,task-fatb,,20143849,BLIND,5973327,Intro Experiment: General explanations,complete,,,computer,Desktop or Laptop,Windows 10,Chrome 98.0.4758.102,1920x1080,1920x937,Part 1 completed,Colors_Only_Dutch,6,Part 1 completed,,Accuracy_level_1,,/task/320040/6/asset/blue.png,,,,image-keyboard-response,4,38349,0.0-1.0-1.1,,,test,,0.43333333333333335,1,0.05366666666666667
6,1646659702188,07/03/2022 13:28:22,1646659699561,1,07/03/2022 14:28:19,73265,15,task-fatb,,20143849,BLIND,5973327,Intro Experiment: General explanations,complete,,,computer,Desktop or Laptop,Windows 10,Chrome 98.0.4758.102,1920x1080,1920x937,Part 1 completed,Colors_Only_Dutch,6,Part 1 completed,,Accuracy_level_1,,"<div style=""font-size:60px;"">  </div>",,,,html-keyboard-response,5,38452,0.0-1.0-0.2,,,,,,,
7,1646659703668,07/03/2022 13:28:23,1646659701065,1,07/03/2022 14:28:21,73265,15,task-fatb,,20143849,BLIND,5973327,Intro Experiment: General explanations,complete,,,computer,Desktop or Laptop,Windows 10,Chrome 98.0.4758.102,1920x1080,1920x937,Part 1 completed,Colors_Only_Dutch,6,Part 1 completed,,Accuracy_level_1,,/task/320040/6/asset/red.png,,,,image-keyboard-response,6,39956,0.0-1.0-1.2,,,test,,0.52,1,0.08045
8,1646659703777,07/03/2022 13:28:23,1646659701168,1,07/03/2022 14:28:21,73265,15,task-fatb,,20143849,BLIND,5973327,Intro Experiment: General explanations,complete,,,computer,Desktop or Laptop,Windows 10,Chrome 98.0.4758.102,1920x1080,1920x937,Part 1 completed,Colors_Only_Dutch,6,Part 1 completed,,Accuracy_level_1,,"<div style=""font-size:60px;"">  </div>",,,,html-keyboard-response,7,40059,0.0-1.0-0.3,,,,,,,
9,1646659705279,07/03/2022 13:28:25,1646659702671,1,07/03/2022 14:28:22,73265,15,task-fatb,,20143849,BLIND,5973327,Intro Experiment: General explanations,complete,,,computer,Desktop or Laptop,Windows 10,Chrome 98.0.4758.102,1920x1080,1920x937,Part 1 completed,Colors_Only_Dutch,6,Part 1 completed,,Accuracy_level_1,472,/task/320040/6/asset/red.png,,,,image-keyboard-response,8,41562,0.0-1.0-1.3,,1,test, ,0.5571428571428572,1,0.10721666666666667
10,1646659705369,07/03/2022 13:28:25,1646659702774,1,07/03/2022 14:28:22,73265,15,task-fatb,,20143849,BLIND,5973327,Intro Experiment: General explanations,complete,,,computer,Desktop or Laptop,Windows 10,Chrome 98.0.4758.102,1920x1080,1920x937,Part 1 completed,Colors_Only_Dutch,6,Part 1 completed,,Accuracy_level_1,,"<div style=""font-size:60px;"">  </div>",,,,html-keyboard-response,9,41665,0.0-1.0-0.4,,,,,,,
11,1646659706874,07/03/2022 13:28:26,1646659704276,1,07/03/2022 14:28:24,73265,15,task-fatb,,20143849,BLIND,5973327,Intro Experiment: General explanations,complete,,,computer,Desktop or Laptop,Windows 10,Chrome 98.0.4758.102,1920x1080,1920x937,Part 1 completed,Colors_Only_Dutch,6,Part 1 completed,,Accuracy_level_1,,/task/320040/6/asset/pink.png,,,,image-keyboard-response,10,43167,0.0-1.0-1.4,,,test,,0.5777777777777778,1,0.13396666666666668
12,1646659706983,07/03/2022 13:28:26,1646659704379,1,07/03/2022 14:28:24,73265,15,task-fatb,,20143849,BLIND,5973327,Intro Experiment: General explanations,complete,,,computer,Desktop or Laptop,Windows 10,Chrome 98.0.4758.102,1920x1080,1920x937,Part 1 completed,Colors_Only_Dutch,6,Part 1 completed,,Accuracy_level_1,,"<div style=""font-size:60px;"">  </div>",,,,html-keyboard-response,11,43270,0.0-1.0-0.5,,,,,,,
13,1646659708488,07/03/2022 13:28:28,1646659705882,1,07/03/2022 14:28:25,73265,15,task-fatb,,20143849,BLIND,5973327,Intro Experiment: General explanations,complete,,,computer,Desktop or Laptop,Windows 10,Chrome 98.0.4758.102,1920x1080,1920x937,Part 1 completed,Colors_Only_Dutch,6,Part 1 completed,,Accuracy_level_1,472.59999999403954,/task/320040/6/asset/pink.png,,,,image-keyboard-response,12,44773,0.0-1.0-1.5,,1,test, ,0.5909090909090909,1,0.16073333333333334
14,1646659708593,07/03/2022 13:28:28,1646659705985,1,07/03/2022 14:28:25,73265,15,task-fatb,,20143849,BLIND,5973327,Intro Experiment: General explanations,complete,,,computer,Desktop or Laptop,Windows 10,Chrome 98.0.4758.102,1920x1080,1920x937,Part 1 completed,Colors_Only_Dutch,6,Part 1 completed,,Accuracy_level_1,,"<div style=""font-size:60px;"">  </div>",,,,html-keyboard-response,13,44876,0.0-1.0-0.6,,,,,,,
15,1646659710105,07/03/2022 13:28:30,1646659707489,1,07/03/2022 14:28:27,73265,15,task-fatb,,20143849,BLIND,5973327,Intro Experiment: General explanations,complete,,,computer,Desktop or Laptop,Windows 10,Chrome 98.0.4758.102,1920x1080,1920x937,Part 1 completed,Colors_Only_Dutch,6,Part 1 completed,,Accuracy_level_1,725.7999999970198,/task/320040/6/asset/pink.png,,,,image-keyboard-response,14,46380,0.0-1.0-1.6,,1,test, ,0.6,1,0.18751666666666666
16,1646659710202,07/03/2022 13:28:30,1646659707591,1,07/03/2022 14:28:27,73265,15,task-fatb,,20143849,BLIND,5973327,Intro Experiment: General explanations,complete,,,computer,Desktop or Laptop,Windows 10,Chrome 98.0.4758.102,1920x1080,1920x937,Part 1 completed,Colors_Only_Dutch,6,Part 1 completed,,Accuracy_level_1,,"<div style=""font-size:60px;"">  </div>",,,,html-keyboard-response,15,46482,0.0-1.0-0.7,,,,,,,
17,1646659711692,07/03/2022 13:28:31,1646659709094,1,07/03/2022 14:28:29,73265,15,task-fatb,,20143849,BLIND,5973327,Intro Experiment: General explanations,complete,,,computer,Desktop or Laptop,Windows 10,Chrome 98.0.4758.102,1920x1080,1920x937,Part 1 completed,Colors_Only_Dutch,6,Part 1 completed,,Accuracy_level_1,448.79999999701977,/task/320040/6/asset/pink.png,,,,image-keyboard-response,16,47985,0.0-1.0-1.7,,1,test, ,0.6066666666666667,1,0.21426666666666666
1,1646660075287,07/03/2022 13:34:35,1646660074190,1,07/03/2022 14:34:34,73265,15,task-fatb,,20144024,BLIND,5973461,Intro Experiment: General explanations,complete,,,computer,Desktop or Laptop,Windows 10,Chrome 98.0.4758.102,1280x720,1280x577,Part 1 completed,Colors_Only_Dutch,6,Part 1 completed,,Accuracy_level_1,23081.599999904633,,,,,instructions,0,23092,0.0-0.0,,,,,,,
2,1646660075382,07/03/2022 13:34:35,1646660074295,1,07/03/2022 14:34:34,73265,15,task-fatb,,20144024,BLIND,5973461,Intro Experiment: General explanations,complete,,,computer,Desktop or Laptop,Windows 10,Chrome 98.0.4758.102,1280x720,1280x577,Part 1 completed,Colors_Only_Dutch,6,Part 1 completed,,Accuracy_level_1,,"<div style=""font-size:60px;"">  </div>",,,,html-keyboard-response,1,23197,0.0-1.0-0.0,,,,,,,
3,1646660076834,07/03/2022 13:34:36,1646660075800,1,07/03/2022 14:34:35,73265,15,task-fatb,,20144024,BLIND,5973461,Intro Experiment: General explanations,complete,,,computer,Desktop or Laptop,Windows 10,Chrome 98.0.4758.102,1280x720,1280x577,Part 1 completed,Colors_Only_Dutch,6,Part 1 completed,,Accuracy_level_1,,/task/320040/6/asset/purple.png,,,,image-keyboard-response,2,24702,0.0-1.0-1.0,,,test,,1.3,1,0.026833333333333334
4,1646660076961,07/03/2022 13:34:36,1646660075908,1,07/03/2022 14:34:35,73265,15,task-fatb,,20144024,BLIND,5973461,Intro Experiment: General explanations,complete,,,computer,Desktop or Laptop,Windows 10,Chrome 98.0.4758.102,1280x720,1280x577,Part 1 completed,Colors_Only_Dutch,6,Part 1 completed,,Accuracy_level_1,,"<div style=""font-size:60px;"">  </div>",,,,html-keyboard-response,3,24811,0.0-1.0-0.1,,,,,,,
5,1646660078480,07/03/2022 13:34:38,1646660077414,1,07/03/2022 14:34:37,73265,15,task-fatb,,20144024,BLIND,5973461,Intro Experiment: General explanations,complete,,,computer,Desktop or Laptop,Windows 10,Chrome 98.0.4758.102,1280x720,1280x577,Part 1 completed,Colors_Only_Dutch,6,Part 1 completed,,Accuracy_level_1,,/task/320040/6/asset/blue.png,,,,image-keyboard-response,4,26317,0.0-1.0-1.1,,,test,,0.8666666666666667,1,0.053733333333333334
6,1646660078558,07/03/2022 13:34:38,1646660077520,1,07/03/2022 14:34:37,73265,15,task-fatb,,20144024,BLIND,5973461,Intro Experiment: General explanations,complete,,,computer,Desktop or Laptop,Windows 10,Chrome 98.0.4758.102,1280x720,1280x577,Part 1 completed,Colors_Only_Dutch,6,Part 1 completed,,Accuracy_level_1,,"<div style=""font-size:60px;"">  </div>",,,,html-keyboard-response,5,26423,0.0-1.0-0.2,,,,,,,
7,1646660080094,07/03/2022 13:34:40,1646660079027,1,07/03/2022 14:34:39,73265,15,task-fatb,,20144024,BLIND,5973461,Intro Experiment: General explanations,complete,,,computer,Desktop or Laptop,Windows 10,Chrome 98.0.4758.102,1280x720,1280x577,Part 1 completed,Colors_Only_Dutch,6,Part 1 completed,,Accuracy_level_1,474.90000009536743,/task/320040/6/asset/blue.png,,,,image-keyboard-response,6,27930,0.0-1.0-1.2,,1,test, ,0.78,1,0.08061666666666667
8,1646660080231,07/03/2022 13:34:40,1646660079135,1,07/03/2022 14:34:39,73265,15,task-fatb,,20144024,BLIND,5973461,Intro Experiment: General explanations,complete,,,computer,Desktop or Laptop,Windows 10,Chrome 98.0.4758.102,1280x720,1280x577,Part 1 completed,Colors_Only_Dutch,6,Part 1 completed,,Accuracy_level_1,,"<div style=""font-size:60px;"">  </div>",,,,html-keyboard-response,7,28037,0.0-1.0-0.3,,,,,,,
9,1646660081701,07/03/2022 13:34:41,1646660080644,1,07/03/2022 14:34:40,73265,15,task-fatb,,20144024,BLIND,5973461,Intro Experiment: General explanations,complete,,,computer,Desktop or Laptop,Windows 10,Chrome 98.0.4758.102,1280x720,1280x577,Part 1 completed,Colors_Only_Dutch,6,Part 1 completed,,Accuracy_level_1,,/task/320040/6/asset/red.png,,,,image-keyboard-response,8,29547,0.0-1.0-1.3,,,test,,0.7428571428571429,1,0.10756666666666667
10,1646660081793,07/03/2022 13:34:41,1646660080752,1,07/03/2022 14:34:40,73265,15,task-fatb,,20144024,BLIND,5973461,Intro Experiment: General explanations,complete,,,computer,Desktop or Laptop,Windows 10,Chrome 98.0.4758.102,1280x720,1280x577,Part 1 completed,Colors_Only_Dutch,6,Part 1 completed,,Accuracy_level_1,,"<div style=""font-size:60px;"">  </div>",,,,html-keyboard-response,9,29654,0.0-1.0-0.4,,,,,,,
11,1646660083311,07/03/2022 13:34:43,1646660082258,1,07/03/2022 14:34:42,73265,15,task-fatb,,20144024,BLIND,5973461,Intro Experiment: General explanations,complete,,,computer,Desktop or Laptop,Windows 10,Chrome 98.0.4758.102,1280x720,1280x577,Part 1 completed,Colors_Only_Dutch,6,Part 1 completed,,Accuracy_level_1,393.7999999523163,/task/320040/6/asset/red.png,,,,image-keyboard-response,10,31160,0.0-1.0-1.4,,1,test, ,0.7222222222222222,1,0.13446666666666668
12,1646660083396,07/03/2022 13:34:43,1646660082362,1,07/03/2022 14:34:42,73265,15,task-fatb,,20144024,BLIND,5973461,Intro Experiment: General explanations,complete,,,computer,Desktop or Laptop,Windows 10,Chrome 98.0.4758.102,1280x720,1280x577,Part 1 completed,Colors_Only_Dutch,6,Part 1 completed,,Accuracy_level_1,,"<div style=""font-size:60px;"">  </div>",,,,html-keyboard-response,11,31265,0.0-1.0-0.5,,,,,,,
13,1646660084932,07/03/2022 13:34:44,1646660083867,1,07/03/2022 14:34:43,73265,15,task-fatb,,20144024,BLIND,5973461,Intro Experiment: General explanations,complete,,,computer,Desktop or Laptop,Windows 10,Chrome 98.0.4758.102,1280x720,1280x577,Part 1 completed,Colors_Only_Dutch,6,Part 1 completed,,Accuracy_level_1,,/task/320040/6/asset/red.png,,,,image-keyboard-response,12,32769,0.0-1.0-1.5,,1,test, ,0.5909090909090909,,0.16128333333333333
14,1646660085107,07/03/2022 13:34:45,1646660084071,1,07/03/2022 14:34:44,73265,15,task-fatb,,20144024,BLIND,5973461,Intro Experiment: General explanations,complete,,,computer,Desktop or Laptop,Windows 10,Chrome 98.0.4758.102,1280x720,1280x577,Part 1 completed,Colors_Only_Dutch,6,Part 1 completed,,Accuracy_level_1,,"<span style=""color:red;font-size:50px;font-weight: bold;"">FOUT!</span>",,,,html-keyboard-response,13,32974,0.0-1.0-2.5-0.5,,,,,,,
15,1646660085198,07/03/2022 13:34:45,1646660084175,1,07/03/2022 14:34:44,73265,15,task-fatb,,20144024,BLIND,5973461,Intro Experiment: General explanations,complete,,,computer,Desktop or Laptop,Windows 10,Chrome 98.0.4758.102,1280x720,1280x577,Part 1 completed,Colors_Only_Dutch,6,Part 1 completed,,Accuracy_level_1,,"<div style=""font-size:60px;"">  </div>",,,,html-keyboard-response,14,33078,0.0-1.0-0.6,,,,,,,
16,1646660086719,07/03/2022 13:34:46,1646660085679,1,07/03/2022 14:34:45,73265,15,task-fatb,,20144024,BLIND,5973461,Intro Experiment: General explanations,complete,,,computer,Desktop or Laptop,Windows 10,Chrome 98.0.4758.102,1280x720,1280x577,Part 1 completed,Colors_Only_Dutch,6,Part 1 completed,,Accuracy_level_1,809.0999999046326,/task/320040/6/asset/red.png,,,,image-keyboard-response,15,34582,0.0-1.0-1.6,,1,test, ,0.5571428571428572,1,0.19148333333333334
17,1646660086807,07/03/2022 13:34:46,1646660085784,1,07/03/2022 14:34:45,73265,15,task-fatb,,20144024,BLIND,5973461,Intro Experiment: General explanations,complete,,,computer,Desktop or Laptop,Windows 10,Chrome 98.0.4758.102,1280x720,1280x577,Part 1 completed,Colors_Only_Dutch,6,Part 1 completed,,Accuracy_level_1,,"<div style=""font-size:60px;"">  </div>",,,,html-keyboard-response,16,34687,0.0-1.0-0.7,,,,,,,
18,1646660088318,07/03/2022 13:34:48,1646660087288,1,07/03/2022 14:34:47,73265,15,task-fatb,,20144024,BLIND,5973461,Intro Experiment: General explanations,complete,,,computer,Desktop or Laptop,Windows 10,Chrome 98.0.4758.102,1280x720,1280x577,Part 1 completed,Colors_Only_Dutch,6,Part 1 completed,,Accuracy_level_1,426.2000000476837,/task/320040/6/asset/red.png,,,,image-keyboard-response,17,36191,0.0-1.0-1.7,,1,test, ,0.56875,1,0.2183
1,1646660582602,07/03/2022 13:43:02,1646660582411,1,07/03/2022 14:43:02,73265,15,task-fatb,,20144348,BLIND,5973538,Intro Experiment: General explanations,complete,,,computer,Desktop or Laptop,Windows 10,Firefox 97.0,1536x864,1536x731,Part 1 completed,Colors_Only_Dutch,6,Part 1 completed,,Accuracy_level_1,16983,,,,,instructions,0,16990,0.0-0.0,,,,,,,
2,1646660582745,07/03/2022 13:43:02,1646660582522,1,07/03/2022 14:43:02,73265,15,task-fatb,,20144348,BLIND,5973538,Intro Experiment: General explanations,complete,,,computer,Desktop or Laptop,Windows 10,Firefox 97.0,1536x864,1536x731,Part 1 completed,Colors_Only_Dutch,6,Part 1 completed,,Accuracy_level_1,,"<div style=""font-size:60px;"">  </div>",,,,html-keyboard-response,1,17101,0.0-1.0-0.0,,,,,,,
3,1646660584188,07/03/2022 13:43:04,1646660584040,1,07/03/2022 14:43:04,73265,15,task-fatb,,20144348,BLIND,5973538,Intro Experiment: General explanations,complete,,,computer,Desktop or Laptop,Windows 10,Firefox 97.0,1536x864,1536x731,Part 1 completed,Colors_Only_Dutch,6,Part 1 completed,,Accuracy_level_1,,/task/320040/6/asset/pink.png,,,,image-keyboard-response,2,18618,0.0-1.0-1.0,,,test,,1.3,1,0.02715
4,1646660584375,07/03/2022 13:43:04,1646660584148,1,07/03/2022 14:43:04,73265,15,task-fatb,,20144348,BLIND,5973538,Intro Experiment: General explanations,complete,,,computer,Desktop or Laptop,Windows 10,Firefox 97.0,1536x864,1536x731,Part 1 completed,Colors_Only_Dutch,6,Part 1 completed,,Accuracy_level_1,,"<div style=""font-size:60px;"">  </div>",,,,html-keyboard-response,3,18727,0.0-1.0-0.1,,,,,,,
5,1646660585779,07/03/2022 13:43:05,1646660585663,1,07/03/2022 14:43:05,73265,15,task-fatb,,20144348,BLIND,5973538,Intro Experiment: General explanations,complete,,,computer,Desktop or Laptop,Windows 10,Firefox 97.0,1536x864,1536x731,Part 1 completed,Colors_Only_Dutch,6,Part 1 completed,,Accuracy_level_1,1020,/task/320040/6/asset/pink.png,,,,image-keyboard-response,4,20241,0.0-1.0-1.1,,1,test, ,0.8666666666666667,1,0.0542
6,1646660585907,07/03/2022 13:43:05,1646660585771,1,07/03/2022 14:43:05,73265,15,task-fatb,,20144348,BLIND,5973538,Intro Experiment: General explanations,complete,,,computer,Desktop or Laptop,Windows 10,Firefox 97.0,1536x864,1536x731,Part 1 completed,Colors_Only_Dutch,6,Part 1 completed,,Accuracy_level_1,,"<div style=""font-size:60px;"">  </div>",,,,html-keyboard-response,5,20350,0.0-1.0-0.2,,,,,,,
7,1646660587391,07/03/2022 13:43:07,1646660587276,1,07/03/2022 14:43:07,73265,15,task-fatb,,20144348,BLIND,5973538,Intro Experiment: General explanations,complete,,,computer,Desktop or Laptop,Windows 10,Firefox 97.0,1536x864,1536x731,Part 1 completed,Colors_Only_Dutch,6,Part 1 completed,,Accuracy_level_1,718,/task/320040/6/asset/pink.png,,,,image-keyboard-response,6,21855,0.0-1.0-1.2,,1,test, ,0.78,1,0.08108333333333333
8,1646660587507,07/03/2022 13:43:07,1646660587382,1,07/03/2022 14:43:07,73265,15,task-fatb,,20144348,BLIND,5973538,Intro Experiment: General explanations,complete,,,computer,Desktop or Laptop,Windows 10,Firefox 97.0,1536x864,1536x731,Part 1 completed,Colors_Only_Dutch,6,Part 1 completed,,Accuracy_level_1,,"<div style=""font-size:60px;"">  </div>",,,,html-keyboard-response,7,21961,0.0-1.0-0.3,,,,,,,
9,1646660589010,07/03/2022 13:43:09,1646660588894,1,07/03/2022 14:43:08,73265,15,task-fatb,,20144348,BLIND,5973538,Intro Experiment: General explanations,complete,,,computer,Desktop or Laptop,Windows 10,Firefox 97.0,1536x864,1536x731,Part 1 completed,Colors_Only_Dutch,6,Part 1 completed,,Accuracy_level_1,,/task/320040/6/asset/yellow.png,,,,image-keyboard-response,8,23473,0.0-1.0-1.3,,,test,,0.7428571428571429,1,0.10805
10,1646660589106,07/03/2022 13:43:09,1646660588999,1,07/03/2022 14:43:08,73265,15,task-fatb,,20144348,BLIND,5973538,Intro Experiment: General explanations,complete,,,computer,Desktop or Laptop,Windows 10,Firefox 97.0,1536x864,1536x731,Part 1 completed,Colors_Only_Dutch,6,Part 1 completed,,Accuracy_level_1,,"<div style=""font-size:60px;"">  </div>",,,,html-keyboard-response,9,23577,0.0-1.0-0.4,,,,,,,
11,1646660590625,07/03/2022 13:43:10,1646660590512,1,07/03/2022 14:43:10,73265,15,task-fatb,,20144348,BLIND,5973538,Intro Experiment: General explanations,complete,,,computer,Desktop or Laptop,Windows 10,Firefox 97.0,1536x864,1536x731,Part 1 completed,Colors_Only_Dutch,6,Part 1 completed,,Accuracy_level_1,499,/task/320040/6/asset/yellow.png,,,,image-keyboard-response,10,25090,0.0-1.0-1.4,,1,test, ,0.7222222222222222,1,0.13501666666666667
12,1646660590747,07/03/2022 13:43:10,1646660590619,1,07/03/2022 14:43:10,73265,15,task-fatb,,20144348,BLIND,5973538,Intro Experiment: General explanations,complete,,,computer,Desktop or Laptop,Windows 10,Firefox 97.0,1536x864,1536x731,Part 1 completed,Colors_Only_Dutch,6,Part 1 completed,,Accuracy_level_1,,"<div style=""font-size:60px;"">  </div>",,,,html-keyboard-response,11,25197,0.0-1.0-0.5,,,,,,,
13,1646660592248,07/03/2022 13:43:12,1646660592133,1,07/03/2022 14:43:12,73265,15,task-fatb,,20144348,BLIND,5973538,Intro Experiment: General explanations,complete,,,computer,Desktop or Laptop,Windows 10,Firefox 97.0,1536x864,1536x731,Part 1 completed,Colors_Only_Dutch,6,Part 1 completed,,Accuracy_level_1,862,/task/320040/6/asset/yellow.png,,,,image-keyboard-response,12,26712,0.0-1.0-1.5,,1,test, ,0.7090909090909091,1,0.16203333333333333
14,1646660592346,07/03/2022 13:43:12,1646660592241,1,07/03/2022 14:43:12,73265,15,task-fatb,,20144348,BLIND,5973538,Intro Experiment: General explanations,complete,,,computer,Desktop or Laptop,Windows 10,Firefox 97.0,1536x864,1536x731,Part 1 completed,Colors_Only_Dutch,6,Part 1 completed,,Accuracy_level_1,,"<div style=""font-size:60px;"">  </div>",,,,html-keyboard-response,13,26820,0.0-1.0-0.6,,,,,,,
15,1646660593878,07/03/2022 13:43:13,1646660593751,1,07/03/2022 14:43:13,73265,15,task-fatb,,20144348,BLIND,5973538,Intro Experiment: General explanations,complete,,,computer,Desktop or Laptop,Windows 10,Firefox 97.0,1536x864,1536x731,Part 1 completed,Colors_Only_Dutch,6,Part 1 completed,,Accuracy_level_1,576,/task/320040/6/asset/yellow.png,,,,image-keyboard-response,14,28330,0.0-1.0-1.6,,1,test, ,0.7,1,0.189
16,1646660593987,07/03/2022 13:43:13,1646660593858,1,07/03/2022 14:43:13,73265,15,task-fatb,,20144348,BLIND,5973538,Intro Experiment: General explanations,complete,,,computer,Desktop or Laptop,Windows 10,Firefox 97.0,1536x864,1536x731,Part 1 completed,Colors_Only_Dutch,6,Part 1 completed,,Accuracy_level_1,,"<div style=""font-size:60px;"">  </div>",,,,html-keyboard-response,15,28436,0.0-1.0-0.7,,,,,,,
17,1646660595487,07/03/2022 13:43:15,1646660595374,1,07/03/2022 14:43:15,73265,15,task-fatb,,20144348,BLIND,5973538,Intro Experiment: General explanations,complete,,,computer,Desktop or Laptop,Windows 10,Firefox 97.0,1536x864,1536x731,Part 1 completed,Colors_Only_Dutch,6,Part 1 completed,,Accuracy_level_1,594,/task/320040/6/asset/yellow.png,,,,image-keyboard-response,16,29953,0.0-1.0-1.7,,1,test, ,0.6933333333333334,1,0.21605
1,1646747641912,08/03/2022 13:54:01,1646747643505,1,08/03/2022 14:54:03,73265,15,task-fatb,,20189774,BLIND,5989210,Intro Experiment: General explanations,complete,,,computer,Desktop or Laptop,Mac OS 10.8.5,Chrome 49.0.2623.112,1920x1080,1920x902,Part 1 completed,Colors_Only_Dutch,6,Part 1 completed,,Accuracy_level_1,28126.73,,,,,instructions,0,28130,0.0-0.0,,,,,,,
2,1646747642011,08/03/2022 13:54:02,1646747643609,1,08/03/2022 14:54:03,73265,15,task-fatb,,20189774,BLIND,5989210,Intro Experiment: General explanations,complete,,,computer,Desktop or Laptop,Mac OS 10.8.5,Chrome 49.0.2623.112,1920x1080,1920x902,Part 1 completed,Colors_Only_Dutch,6,Part 1 completed,,Accuracy_level_1,,"<div style=""font-size:60px;"">  </div>",,,,html-keyboard-response,1,28235,0.0-1.0-0.0,,,,,,,
3,1646747643418,08/03/2022 13:54:03,1646747645113,1,08/03/2022 14:54:05,73265,15,task-fatb,,20189774,BLIND,5989210,Intro Experiment: General explanations,complete,,,computer,Desktop or Laptop,Mac OS 10.8.5,Chrome 49.0.2623.112,1920x1080,1920x902,Part 1 completed,Colors_Only_Dutch,6,Part 1 completed,,Accuracy_level_1,,/task/320040/6/asset/green.png,,,,image-keyboard-response,2,29738,0.0-1.0-1.0,,1,test, ,0,,0.026816666666666666
4,1646747643495,08/03/2022 13:54:03,1646747645215,1,08/03/2022 14:54:05,73265,15,task-fatb,,20189774,BLIND,5989210,Intro Experiment: General explanations,complete,,,computer,Desktop or Laptop,Mac OS 10.8.5,Chrome 49.0.2623.112,1920x1080,1920x902,Part 1 completed,Colors_Only_Dutch,6,Part 1 completed,,Accuracy_level_1,,"<div style=""font-size:60px;"">  </div>",,,,html-keyboard-response,3,29841,0.0-1.0-0.1,,,,,,,
5,1646747645434,08/03/2022 13:54:05,1646747646718,1,08/03/2022 14:54:06,73265,15,task-fatb,,20189774,BLIND,5989210,Intro Experiment: General explanations,complete,,,computer,Desktop or Laptop,Mac OS 10.8.5,Chrome 49.0.2623.112,1920x1080,1920x902,Part 1 completed,Colors_Only_Dutch,6,Part 1 completed,,Accuracy_level_1,,/task/320040/6/asset/green.png,,,,image-keyboard-response,4,31343,0.0-1.0-1.1,,1,test, ,0,,0.05355
6,1646747645559,08/03/2022 13:54:05,1646747646920,1,08/03/2022 14:54:06,73265,15,task-fatb,,20189774,BLIND,5989210,Intro Experiment: General explanations,complete,,,computer,Desktop or Laptop,Mac OS 10.8.5,Chrome 49.0.2623.112,1920x1080,1920x902,Part 1 completed,Colors_Only_Dutch,6,Part 1 completed,,Accuracy_level_1,,"<span style=""color:red;font-size:50px;font-weight: bold;"">FOUT!</span>",,,,html-keyboard-response,5,31546,0.0-1.0-2.1-0.1,,,,,,,
7,1646747645559,08/03/2022 13:54:05,1646747647022,1,08/03/2022 14:54:07,73265,15,task-fatb,,20189774,BLIND,5989210,Intro Experiment: General explanations,complete,,,computer,Desktop or Laptop,Mac OS 10.8.5,Chrome 49.0.2623.112,1920x1080,1920x902,Part 1 completed,Colors_Only_Dutch,6,Part 1 completed,,Accuracy_level_1,,"<div style=""font-size:60px;"">  </div>",,,,html-keyboard-response,6,31647,0.0-1.0-0.2,,,,,,,
8,1646747646835,08/03/2022 13:54:06,1646747648523,1,08/03/2022 14:54:08,73265,15,task-fatb,,20189774,BLIND,5989210,Intro Experiment: General explanations,complete,,,computer,Desktop or Laptop,Mac OS 10.8.5,Chrome 49.0.2623.112,1920x1080,1920x902,Part 1 completed,Colors_Only_Dutch,6,Part 1 completed,,Accuracy_level_1,,/task/320040/6/asset/green.png,,,,image-keyboard-response,7,33149,0.0-1.0-1.2,,1,test, ,0,,0.08365
9,1646747647007,08/03/2022 13:54:07,1646747648725,1,08/03/2022 14:54:08,73265,15,task-fatb,,20189774,BLIND,5989210,Intro Experiment: General explanations,complete,,,computer,Desktop or Laptop,Mac OS 10.8.5,Chrome 49.0.2623.112,1920x1080,1920x902,Part 1 completed,Colors_Only_Dutch,6,Part 1 completed,,Accuracy_level_1,,"<span style=""color:red;font-size:50px;font-weight: bold;"">FOUT!</span>",,,,html-keyboard-response,8,33351,0.0-1.0-2.2-0.2,,,,,,,
10,1646747647085,08/03/2022 13:54:07,1646747648827,1,08/03/2022 14:54:08,73265,15,task-fatb,,20189774,BLIND,5989210,Intro Experiment: General explanations,complete,,,computer,Desktop or Laptop,Mac OS 10.8.5,Chrome 49.0.2623.112,1920x1080,1920x902,Part 1 completed,Colors_Only_Dutch,6,Part 1 completed,,Accuracy_level_1,,"<div style=""font-size:60px;"">  </div>",,,,html-keyboard-response,9,33453,0.0-1.0-0.3,,,,,,,
11,1646747648590,08/03/2022 13:54:08,1646747650329,1,08/03/2022 14:54:10,73265,15,task-fatb,,20189774,BLIND,5989210,Intro Experiment: General explanations,complete,,,computer,Desktop or Laptop,Mac OS 10.8.5,Chrome 49.0.2623.112,1920x1080,1920x902,Part 1 completed,Colors_Only_Dutch,6,Part 1 completed,,Accuracy_level_1,,/task/320040/6/asset/green.png,,,,image-keyboard-response,10,34955,0.0-1.0-1.3,,1,test, ,0,,0.11375
12,1646747648792,08/03/2022 13:54:08,1646747650532,1,08/03/2022 14:54:10,73265,15,task-fatb,,20189774,BLIND,5989210,Intro Experiment: General explanations,complete,,,computer,Desktop or Laptop,Mac OS 10.8.5,Chrome 49.0.2623.112,1920x1080,1920x902,Part 1 completed,Colors_Only_Dutch,6,Part 1 completed,,Accuracy_level_1,,"<span style=""color:red;font-size:50px;font-weight: bold;"">FOUT!</span>",,,,html-keyboard-response,11,35158,0.0-1.0-2.3-0.3,,,,,,,
13,1646747648898,08/03/2022 13:54:08,1646747650634,1,08/03/2022 14:54:10,73265,15,task-fatb,,20189774,BLIND,5989210,Intro Experiment: General explanations,complete,,,computer,Desktop or Laptop,Mac OS 10.8.5,Chrome 49.0.2623.112,1920x1080,1920x902,Part 1 completed,Colors_Only_Dutch,6,Part 1 completed,,Accuracy_level_1,,"<div style=""font-size:60px;"">  </div>",,,,html-keyboard-response,12,35260,0.0-1.0-0.4,,,,,,,
14,1646747650461,08/03/2022 13:54:10,1646747652136,1,08/03/2022 14:54:12,73265,15,task-fatb,,20189774,BLIND,5989210,Intro Experiment: General explanations,complete,,,computer,Desktop or Laptop,Mac OS 10.8.5,Chrome 49.0.2623.112,1920x1080,1920x902,Part 1 completed,Colors_Only_Dutch,6,Part 1 completed,,Accuracy_level_1,,/task/320040/6/asset/purple.png,,,,image-keyboard-response,13,36762,0.0-1.0-1.4,,,test,,0.10833333333333334,1,0.14386666666666667
15,1646747650539,08/03/2022 13:54:10,1646747652238,1,08/03/2022 14:54:12,73265,15,task-fatb,,20189774,BLIND,5989210,Intro Experiment: General explanations,complete,,,computer,Desktop or Laptop,Mac OS 10.8.5,Chrome 49.0.2623.112,1920x1080,1920x902,Part 1 completed,Colors_Only_Dutch,6,Part 1 completed,,Accuracy_level_1,,"<div style=""font-size:60px;"">  </div>",,,,html-keyboard-response,14,36864,0.0-1.0-0.5,,,,,,,
16,1646747652008,08/03/2022 13:54:12,1646747653739,1,08/03/2022 14:54:13,73265,15,task-fatb,,20189774,BLIND,5989210,Intro Experiment: General explanations,complete,,,computer,Desktop or Laptop,Mac OS 10.8.5,Chrome 49.0.2623.112,1920x1080,1920x902,Part 1 completed,Colors_Only_Dutch,6,Part 1 completed,,Accuracy_level_1,,/task/320040/6/asset/purple.png,,,,image-keyboard-response,15,38365,0.0-1.0-1.5,,1,test, ,0.09285714285714286,,0.17058333333333334
17,1646747652202,08/03/2022 13:54:12,1646747653941,1,08/03/2022 14:54:13,73265,15,task-fatb,,20189774,BLIND,5989210,Intro Experiment: General explanations,complete,,,computer,Desktop or Laptop,Mac OS 10.8.5,Chrome 49.0.2623.112,1920x1080,1920x902,Part 1 completed,Colors_Only_Dutch,6,Part 1 completed,,Accuracy_level_1,,"<span style=""color:red;font-size:50px;font-weight: bold;"">FOUT!</span>",,,,html-keyboard-response,16,38567,0.0-1.0-2.5-0.5,,,,,,,
18,1646747652311,08/03/2022 13:54:12,1646747654043,1,08/03/2022 14:54:14,73265,15,task-fatb,,20189774,BLIND,5989210,Intro Experiment: General explanations,complete,,,computer,Desktop or Laptop,Mac OS 10.8.5,Chrome 49.0.2623.112,1920x1080,1920x902,Part 1 completed,Colors_Only_Dutch,6,Part 1 completed,,Accuracy_level_1,,"<div style=""font-size:60px;"">  </div>",,,,html-keyboard-response,17,38669,0.0-1.0-0.6,,,,,,,
19,1646747653807,08/03/2022 13:54:13,1646747655546,1,08/03/2022 14:54:15,73265,15,task-fatb,,20189774,BLIND,5989210,Intro Experiment: General explanations,complete,,,computer,Desktop or Laptop,Mac OS 10.8.5,Chrome 49.0.2623.112,1920x1080,1920x902,Part 1 completed,Colors_Only_Dutch,6,Part 1 completed,,Accuracy_level_1,,/task/320040/6/asset/purple.png,,,,image-keyboard-response,18,40172,0.0-1.0-1.6,,1,test, ,0.07647058823529412,,0.2007
20,1646747654018,08/03/2022 13:54:14,1646747655748,1,08/03/2022 14:54:15,73265,15,task-fatb,,20189774,BLIND,5989210,Intro Experiment: General explanations,complete,,,computer,Desktop or Laptop,Mac OS 10.8.5,Chrome 49.0.2623.112,1920x1080,1920x902,Part 1 completed,Colors_Only_Dutch,6,Part 1 completed,,Accuracy_level_1,,"<span style=""color:red;font-size:50px;font-weight: bold;"">FOUT!</span>",,,,html-keyboard-response,19,40374,0.0-1.0-2.6-0.6,,,,,,,
21,1646747654120,08/03/2022 13:54:14,1646747655849,1,08/03/2022 14:54:15,73265,15,task-fatb,,20189774,BLIND,5989210,Intro Experiment: General explanations,complete,,,computer,Desktop or Laptop,Mac OS 10.8.5,Chrome 49.0.2623.112,1920x1080,1920x902,Part 1 completed,Colors_Only_Dutch,6,Part 1 completed,,Accuracy_level_1,,"<div style=""font-size:60px;"">  </div>",,,,html-keyboard-response,20,40475,0.0-1.0-0.7,,,,,,,
22,1646747655621,08/03/2022 13:54:15,1646747657352,1,08/03/2022 14:54:17,73265,15,task-fatb,,20189774,BLIND,5989210,Intro Experiment: General explanations,complete,,,computer,Desktop or Laptop,Mac OS 10.8.5,Chrome 49.0.2623.112,1920x1080,1920x902,Part 1 completed,Colors_Only_Dutch,6,Part 1 completed,,Accuracy_level_1,,/task/320040/6/asset/white.png,,,,image-keyboard-response,21,41978,0.0-1.0-1.7,,,test,,0.13,1,0.2308
1,1647007407664,11/03/2022 14:03:27,1647007407510,1,11/03/2022 15:03:27,73265,15,task-fatb,,20300983,BLIND,6021527,Intro Experiment: General explanations,complete,,,computer,Desktop or Laptop,Windows 10,Chrome 99.0.4844.51,1536x864,1536x722,Part 1 completed,Colors_Only_Dutch,6,Part 1 completed,,Accuracy_level_1,13889.700000047684,,,,,instructions,0,13894,0.0-0.0,,,,,,,
2,1647007407761,11/03/2022 14:03:27,1647007407631,1,11/03/2022 15:03:27,73265,15,task-fatb,,20300983,BLIND,6021527,Intro Experiment: General explanations,complete,,,computer,Desktop or Laptop,Windows 10,Chrome 99.0.4844.51,1536x864,1536x722,Part 1 completed,Colors_Only_Dutch,6,Part 1 completed,,Accuracy_level_1,,"<div style=""font-size:60px;"">  </div>",,,,html-keyboard-response,1,14016,0.0-1.0-0.0,,,,,,,
3,1647007409474,11/03/2022 14:03:29,1647007409143,1,11/03/2022 15:03:29,73265,15,task-fatb,,20300983,BLIND,6021527,Intro Experiment: General explanations,complete,,,computer,Desktop or Laptop,Windows 10,Chrome 99.0.4844.51,1536x864,1536x722,Part 1 completed,Colors_Only_Dutch,6,Part 1 completed,,Accuracy_level_1,,/task/320040/6/asset/white.png,,,,image-keyboard-response,2,15527,0.0-1.0-1.0,,1,test, ,0,,0.02723333333333333
4,1647007409625,11/03/2022 14:03:29,1647007409249,1,11/03/2022 15:03:29,73265,15,task-fatb,,20300983,BLIND,6021527,Intro Experiment: General explanations,complete,,,computer,Desktop or Laptop,Windows 10,Chrome 99.0.4844.51,1536x864,1536x722,Part 1 completed,Colors_Only_Dutch,6,Part 1 completed,,Accuracy_level_1,,"<div style=""font-size:60px;"">  </div>",,,,html-keyboard-response,3,15634,0.0-1.0-0.1,,,,,,,
5,1647007410896,11/03/2022 14:03:30,1647007410754,1,11/03/2022 15:03:30,73265,15,task-fatb,,20300983,BLIND,6021527,Intro Experiment: General explanations,complete,,,computer,Desktop or Laptop,Windows 10,Chrome 99.0.4844.51,1536x864,1536x722,Part 1 completed,Colors_Only_Dutch,6,Part 1 completed,,Accuracy_level_1,683.6000001430511,/task/320040/6/asset/white.png,,,,image-keyboard-response,4,17138,0.0-1.0-1.1,,1,test, ,0.43333333333333335,1,0.05408333333333333
6,1647007410969,11/03/2022 14:03:30,1647007410863,1,11/03/2022 15:03:30,73265,15,task-fatb,,20300983,BLIND,6021527,Intro Experiment: General explanations,complete,,,computer,Desktop or Laptop,Windows 10,Chrome 99.0.4844.51,1536x864,1536x722,Part 1 completed,Colors_Only_Dutch,6,Part 1 completed,,Accuracy_level_1,,"<div style=""font-size:60px;"">  </div>",,,,html-keyboard-response,5,17248,0.0-1.0-0.2,,,,,,,
7,1647007412462,11/03/2022 14:03:32,1647007412371,1,11/03/2022 15:03:32,73265,15,task-fatb,,20300983,BLIND,6021527,Intro Experiment: General explanations,complete,,,computer,Desktop or Laptop,Windows 10,Chrome 99.0.4844.51,1536x864,1536x722,Part 1 completed,Colors_Only_Dutch,6,Part 1 completed,,Accuracy_level_1,,/task/320040/6/asset/pink.png,,,,image-keyboard-response,6,18756,0.0-1.0-1.2,,,test,,0.52,1,0.08103333333333333
8,1647007412556,11/03/2022 14:03:32,1647007412478,1,11/03/2022 15:03:32,73265,15,task-fatb,,20300983,BLIND,6021527,Intro Experiment: General explanations,complete,,,computer,Desktop or Laptop,Windows 10,Chrome 99.0.4844.51,1536x864,1536x722,Part 1 completed,Colors_Only_Dutch,6,Part 1 completed,,Accuracy_level_1,,"<div style=""font-size:60px;"">  </div>",,,,html-keyboard-response,7,18863,0.0-1.0-0.3,,,,,,,
9,1647007414056,11/03/2022 14:03:34,1647007413983,1,11/03/2022 15:03:33,73265,15,task-fatb,,20300983,BLIND,6021527,Intro Experiment: General explanations,complete,,,computer,Desktop or Laptop,Windows 10,Chrome 99.0.4844.51,1536x864,1536x722,Part 1 completed,Colors_Only_Dutch,6,Part 1 completed,,Accuracy_level_1,,/task/320040/6/asset/black.png,,,,image-keyboard-response,8,20368,0.0-1.0-1.3,,,test,,0.5571428571428572,1,0.1079
10,1647007414181,11/03/2022 14:03:34,1647007414092,1,11/03/2022 15:03:34,73265,15,task-fatb,,20300983,BLIND,6021527,Intro Experiment: General explanations,complete,,,computer,Desktop or Laptop,Windows 10,Chrome 99.0.4844.51,1536x864,1536x722,Part 1 completed,Colors_Only_Dutch,6,Part 1 completed,,Accuracy_level_1,,"<div style=""font-size:60px;"">  </div>",,,,html-keyboard-response,9,20477,0.0-1.0-0.4,,,,,,,
11,1647007415687,11/03/2022 14:03:35,1647007415602,1,11/03/2022 15:03:35,73265,15,task-fatb,,20300983,BLIND,6021527,Intro Experiment: General explanations,complete,,,computer,Desktop or Laptop,Windows 10,Chrome 99.0.4844.51,1536x864,1536x722,Part 1 completed,Colors_Only_Dutch,6,Part 1 completed,,Accuracy_level_1,352.2999999523163,/task/320040/6/asset/black.png,,,,image-keyboard-response,10,21986,0.0-1.0-1.4,,1,test, ,0.5777777777777778,1,0.13488333333333333
12,1647007415822,11/03/2022 14:03:35,1647007415723,1,11/03/2022 15:03:35,73265,15,task-fatb,,20300983,BLIND,6021527,Intro Experiment: General explanations,complete,,,computer,Desktop or Laptop,Windows 10,Chrome 99.0.4844.51,1536x864,1536x722,Part 1 completed,Colors_Only_Dutch,6,Part 1 completed,,Accuracy_level_1,,"<div style=""font-size:60px;"">  </div>",,,,html-keyboard-response,11,22108,0.0-1.0-0.5,,,,,,,
13,1647007417322,11/03/2022 14:03:37,1647007417236,1,11/03/2022 15:03:37,73265,15,task-fatb,,20300983,BLIND,6021527,Intro Experiment: General explanations,complete,,,computer,Desktop or Laptop,Windows 10,Chrome 99.0.4844.51,1536x864,1536x722,Part 1 completed,Colors_Only_Dutch,6,Part 1 completed,,Accuracy_level_1,510.7000000476837,/task/320040/6/asset/black.png,,,,image-keyboard-response,12,23621,0.0-1.0-1.5,,1,test, ,0.5909090909090909,1,0.16211666666666666
14,1647007417430,11/03/2022 14:03:37,1647007417344,1,11/03/2022 15:03:37,73265,15,task-fatb,,20300983,BLIND,6021527,Intro Experiment: General explanations,complete,,,computer,Desktop or Laptop,Windows 10,Chrome 99.0.4844.51,1536x864,1536x722,Part 1 completed,Colors_Only_Dutch,6,Part 1 completed,,Accuracy_level_1,,"<div style=""font-size:60px;"">  </div>",,,,html-keyboard-response,13,23729,0.0-1.0-0.6,,,,,,,
15,1647007418935,11/03/2022 14:03:38,1647007418851,1,11/03/2022 15:03:38,73265,15,task-fatb,,20300983,BLIND,6021527,Intro Experiment: General explanations,complete,,,computer,Desktop or Laptop,Windows 10,Chrome 99.0.4844.51,1536x864,1536x722,Part 1 completed,Colors_Only_Dutch,6,Part 1 completed,,Accuracy_level_1,,/task/320040/6/asset/blue.png,,,,image-keyboard-response,14,25236,0.0-1.0-1.6,,,test,,0.6,1,0.18903333333333333
16,1647007419029,11/03/2022 14:03:39,1647007418959,1,11/03/2022 15:03:38,73265,15,task-fatb,,20300983,BLIND,6021527,Intro Experiment: General explanations,complete,,,computer,Desktop or Laptop,Windows 10,Chrome 99.0.4844.51,1536x864,1536x722,Part 1 completed,Colors_Only_Dutch,6,Part 1 completed,,Accuracy_level_1,,"<div style=""font-size:60px;"">  </div>",,,,html-keyboard-response,15,25344,0.0-1.0-0.7,,,,,,,
17,1647007420540,11/03/2022 14:03:40,1647007420466,1,11/03/2022 15:03:40,73265,15,task-fatb,,20300983,BLIND,6021527,Intro Experiment: General explanations,complete,,,computer,Desktop or Laptop,Windows 10,Chrome 99.0.4844.51,1536x864,1536x722,Part 1 completed,Colors_Only_Dutch,6,Part 1 completed,,Accuracy_level_1,315.60000014305115,/task/320040/6/asset/blue.png,,,,image-keyboard-response,16,26851,0.0-1.0-1.7,,1,test, ,0.6066666666666667,1,0.21595
1,1647012529569,11/03/2022 15:28:49,1647012529443,1,11/03/2022 16:28:49,73265,15,task-fatb,,20303999,BLIND,6022522,Intro Experiment: General explanations,complete,,,computer,Desktop or Laptop,Windows 10,Chrome 99.0.4844.51,1280x720,1280x577,Part 1 completed,Colors_Only_Dutch,6,Part 1 completed,,Accuracy_level_1,29969.90000000596,,,,,instructions,0,29972,0.0-0.0,,,,,,,
2,1647012529663,11/03/2022 15:28:49,1647012529559,1,11/03/2022 16:28:49,73265,15,task-fatb,,20303999,BLIND,6022522,Intro Experiment: General explanations,complete,,,computer,Desktop or Laptop,Windows 10,Chrome 99.0.4844.51,1280x720,1280x577,Part 1 completed,Colors_Only_Dutch,6,Part 1 completed,,Accuracy_level_1,,"<div style=""font-size:60px;"">  </div>",,,,html-keyboard-response,1,30089,0.0-1.0-0.0,,,,,,,
3,1647012531138,11/03/2022 15:28:51,1647012531062,1,11/03/2022 16:28:51,73265,15,task-fatb,,20303999,BLIND,6022522,Intro Experiment: General explanations,complete,,,computer,Desktop or Laptop,Windows 10,Chrome 99.0.4844.51,1280x720,1280x577,Part 1 completed,Colors_Only_Dutch,6,Part 1 completed,,Accuracy_level_1,,/task/320040/6/asset/purple.png,,,,image-keyboard-response,2,31592,0.0-1.0-1.0,,,test,,1.3,1,0.027
4,1647012531258,11/03/2022 15:28:51,1647012531165,1,11/03/2022 16:28:51,73265,15,task-fatb,,20303999,BLIND,6022522,Intro Experiment: General explanations,complete,,,computer,Desktop or Laptop,Windows 10,Chrome 99.0.4844.51,1280x720,1280x577,Part 1 completed,Colors_Only_Dutch,6,Part 1 completed,,Accuracy_level_1,,"<div style=""font-size:60px;"">  </div>",,,,html-keyboard-response,3,31695,0.0-1.0-0.1,,,,,,,
5,1647012532716,11/03/2022 15:28:52,1647012532667,1,11/03/2022 16:28:52,73265,15,task-fatb,,20303999,BLIND,6022522,Intro Experiment: General explanations,complete,,,computer,Desktop or Laptop,Windows 10,Chrome 99.0.4844.51,1280x720,1280x577,Part 1 completed,Colors_Only_Dutch,6,Part 1 completed,,Accuracy_level_1,,/task/320040/6/asset/yellow.png,,,,image-keyboard-response,4,33197,0.0-1.0-1.1,,,test,,0.8666666666666667,1,0.05375
6,1647012532808,11/03/2022 15:28:52,1647012532772,1,11/03/2022 16:28:52,73265,15,task-fatb,,20303999,BLIND,6022522,Intro Experiment: General explanations,complete,,,computer,Desktop or Laptop,Windows 10,Chrome 99.0.4844.51,1280x720,1280x577,Part 1 completed,Colors_Only_Dutch,6,Part 1 completed,,Accuracy_level_1,,"<div style=""font-size:60px;"">  </div>",,,,html-keyboard-response,5,33302,0.0-1.0-0.2,,,,,,,
7,1647012534328,11/03/2022 15:28:54,1647012534278,1,11/03/2022 16:28:54,73265,15,task-fatb,,20303999,BLIND,6022522,Intro Experiment: General explanations,complete,,,computer,Desktop or Laptop,Windows 10,Chrome 99.0.4844.51,1280x720,1280x577,Part 1 completed,Colors_Only_Dutch,6,Part 1 completed,,Accuracy_level_1,426.5,/task/320040/6/asset/yellow.png,,,,image-keyboard-response,6,34808,0.0-1.0-1.2,,1,test, ,0.78,1,0.0806
8,1647012534436,11/03/2022 15:28:54,1647012534383,1,11/03/2022 16:28:54,73265,15,task-fatb,,20303999,BLIND,6022522,Intro Experiment: General explanations,complete,,,computer,Desktop or Laptop,Windows 10,Chrome 99.0.4844.51,1280x720,1280x577,Part 1 completed,Colors_Only_Dutch,6,Part 1 completed,,Accuracy_level_1,,"<div style=""font-size:60px;"">  </div>",,,,html-keyboard-response,7,34913,0.0-1.0-0.3,,,,,,,
9,1647012536001,11/03/2022 15:28:56,1647012535890,1,11/03/2022 16:28:55,73265,15,task-fatb,,20303999,BLIND,6022522,Intro Experiment: General explanations,complete,,,computer,Desktop or Laptop,Windows 10,Chrome 99.0.4844.51,1280x720,1280x577,Part 1 completed,Colors_Only_Dutch,6,Part 1 completed,,Accuracy_level_1,382.1000000089407,/task/320040/6/asset/yellow.png,,,,image-keyboard-response,8,36420,0.0-1.0-1.3,,1,test, ,0.7428571428571429,1,0.10746666666666667
10,1647012536125,11/03/2022 15:28:56,1647012535994,1,11/03/2022 16:28:55,73265,15,task-fatb,,20303999,BLIND,6022522,Intro Experiment: General explanations,complete,,,computer,Desktop or Laptop,Windows 10,Chrome 99.0.4844.51,1280x720,1280x577,Part 1 completed,Colors_Only_Dutch,6,Part 1 completed,,Accuracy_level_1,,"<div style=""font-size:60px;"">  </div>",,,,html-keyboard-response,9,36524,0.0-1.0-0.4,,,,,,,
11,1647012537547,11/03/2022 15:28:57,1647012537510,1,11/03/2022 16:28:57,73265,15,task-fatb,,20303999,BLIND,6022522,Intro Experiment: General explanations,complete,,,computer,Desktop or Laptop,Windows 10,Chrome 99.0.4844.51,1280x720,1280x577,Part 1 completed,Colors_Only_Dutch,6,Part 1 completed,,Accuracy_level_1,221.3999999910593,/task/320040/6/asset/yellow.png,,,,image-keyboard-response,10,38039,0.0-1.0-1.4,,1,test, ,0.7222222222222222,1,0.13446666666666668
12,1647012537647,11/03/2022 15:28:57,1647012537611,1,11/03/2022 16:28:57,73265,15,task-fatb,,20303999,BLIND,6022522,Intro Experiment: General explanations,complete,,,computer,Desktop or Laptop,Windows 10,Chrome 99.0.4844.51,1280x720,1280x577,Part 1 completed,Colors_Only_Dutch,6,Part 1 completed,,Accuracy_level_1,,"<div style=""font-size:60px;"">  </div>",,,,html-keyboard-response,11,38141,0.0-1.0-0.5,,,,,,,
13,1647012539150,11/03/2022 15:28:59,1647012539113,1,11/03/2022 16:28:59,73265,15,task-fatb,,20303999,BLIND,6022522,Intro Experiment: General explanations,complete,,,computer,Desktop or Laptop,Windows 10,Chrome 99.0.4844.51,1280x720,1280x577,Part 1 completed,Colors_Only_Dutch,6,Part 1 completed,,Accuracy_level_1,,/task/320040/6/asset/red.png,,,,image-keyboard-response,12,39643,0.0-1.0-1.5,,,test,,0.7090909090909091,1,0.16118333333333335
14,1647012539265,11/03/2022 15:28:59,1647012539217,1,11/03/2022 16:28:59,73265,15,task-fatb,,20303999,BLIND,6022522,Intro Experiment: General explanations,complete,,,computer,Desktop or Laptop,Windows 10,Chrome 99.0.4844.51,1280x720,1280x577,Part 1 completed,Colors_Only_Dutch,6,Part 1 completed,,Accuracy_level_1,,"<div style=""font-size:60px;"">  </div>",,,,html-keyboard-response,13,39747,0.0-1.0-0.6,,,,,,,
15,1647012540761,11/03/2022 15:29:00,1647012540721,1,11/03/2022 16:29:00,73265,15,task-fatb,,20303999,BLIND,6022522,Intro Experiment: General explanations,complete,,,computer,Desktop or Laptop,Windows 10,Chrome 99.0.4844.51,1280x720,1280x577,Part 1 completed,Colors_Only_Dutch,6,Part 1 completed,,Accuracy_level_1,349.70000000298023,/task/320040/6/asset/red.png,,,,image-keyboard-response,14,41251,0.0-1.0-1.6,,1,test, ,0.7,1,0.18798333333333334
16,1647012540875,11/03/2022 15:29:00,1647012540825,1,11/03/2022 16:29:00,73265,15,task-fatb,,20303999,BLIND,6022522,Intro Experiment: General explanations,complete,,,computer,Desktop or Laptop,Windows 10,Chrome 99.0.4844.51,1280x720,1280x577,Part 1 completed,Colors_Only_Dutch,6,Part 1 completed,,Accuracy_level_1,,"<div style=""font-size:60px;"">  </div>",,,,html-keyboard-response,15,41355,0.0-1.0-0.7,,,,,,,
17,1647012542375,11/03/2022 15:29:02,1647012542332,1,11/03/2022 16:29:02,73265,15,task-fatb,,20303999,BLIND,6022522,Intro Experiment: General explanations,complete,,,computer,Desktop or Laptop,Windows 10,Chrome 99.0.4844.51,1280x720,1280x577,Part 1 completed,Colors_Only_Dutch,6,Part 1 completed,,Accuracy_level_1,214,/task/320040/6/asset/red.png,,,,image-keyboard-response,16,42862,0.0-1.0-1.7,,1,test, ,0.6933333333333334,1,0.21483333333333332
1,1647697637504,19/03/2022 13:47:17,1647697637417,1,19/03/2022 14:47:17,73265,15,task-fatb,,20556879,BLIND,6094733,Intro Experiment: General explanations,complete,,,computer,Desktop or Laptop,Mac OS 10.15.3,Safari 13.0.5,1280x800,1277x673,Part 1 completed,Colors_Only_Dutch,6,Part 1 completed,,Accuracy_level_1,17465,,,,,instructions,0,17469,0.0-0.0,,,,,,,
2,1647697637594,19/03/2022 13:47:17,1647697637522,1,19/03/2022 14:47:17,73265,15,task-fatb,,20556879,BLIND,6094733,Intro Experiment: General explanations,complete,,,computer,Desktop or Laptop,Mac OS 10.15.3,Safari 13.0.5,1280x800,1277x673,Part 1 completed,Colors_Only_Dutch,6,Part 1 completed,,Accuracy_level_1,,"<div style=""font-size:60px;"">  </div>",,,,html-keyboard-response,1,17574,0.0-1.0-0.0,,,,,,,
3,1647697639053,19/03/2022 13:47:19,1647697639027,1,19/03/2022 14:47:19,73265,15,task-fatb,,20556879,BLIND,6094733,Intro Experiment: General explanations,complete,,,computer,Desktop or Laptop,Mac OS 10.15.3,Safari 13.0.5,1280x800,1277x673,Part 1 completed,Colors_Only_Dutch,6,Part 1 completed,,Accuracy_level_1,,/task/320040/6/asset/blue.png,,,,image-keyboard-response,2,19079,0.0-1.0-1.0,,1,test, ,0,,0.026833333333333334
4,1647697639179,19/03/2022 13:47:19,1647697639131,1,19/03/2022 14:47:19,73265,15,task-fatb,,20556879,BLIND,6094733,Intro Experiment: General explanations,complete,,,computer,Desktop or Laptop,Mac OS 10.15.3,Safari 13.0.5,1280x800,1277x673,Part 1 completed,Colors_Only_Dutch,6,Part 1 completed,,Accuracy_level_1,,"<div style=""font-size:60px;"">  </div>",,,,html-keyboard-response,3,19183,0.0-1.0-0.1,,,,,,,
5,1647697640666,19/03/2022 13:47:20,1647697640639,1,19/03/2022 14:47:20,73265,15,task-fatb,,20556879,BLIND,6094733,Intro Experiment: General explanations,complete,,,computer,Desktop or Laptop,Mac OS 10.15.3,Safari 13.0.5,1280x800,1277x673,Part 1 completed,Colors_Only_Dutch,6,Part 1 completed,,Accuracy_level_1,485.00000000000364,/task/320040/6/asset/blue.png,,,,image-keyboard-response,4,20690,0.0-1.0-1.1,,1,test, ,0.43333333333333335,1,0.0537
6,1647697640790,19/03/2022 13:47:20,1647697640742,1,19/03/2022 14:47:20,73265,15,task-fatb,,20556879,BLIND,6094733,Intro Experiment: General explanations,complete,,,computer,Desktop or Laptop,Mac OS 10.15.3,Safari 13.0.5,1280x800,1277x673,Part 1 completed,Colors_Only_Dutch,6,Part 1 completed,,Accuracy_level_1,,"<div style=""font-size:60px;"">  </div>",,,,html-keyboard-response,5,20794,0.0-1.0-0.2,,,,,,,
7,1647697642274,19/03/2022 13:47:22,1647697642247,1,19/03/2022 14:47:22,73265,15,task-fatb,,20556879,BLIND,6094733,Intro Experiment: General explanations,complete,,,computer,Desktop or Laptop,Mac OS 10.15.3,Safari 13.0.5,1280x800,1277x673,Part 1 completed,Colors_Only_Dutch,6,Part 1 completed,,Accuracy_level_1,518,/task/320040/6/asset/blue.png,,,,image-keyboard-response,6,22299,0.0-1.0-1.2,,1,test, ,0.52,1,0.0805
8,1647697642385,19/03/2022 13:47:22,1647697642351,1,19/03/2022 14:47:22,73265,15,task-fatb,,20556879,BLIND,6094733,Intro Experiment: General explanations,complete,,,computer,Desktop or Laptop,Mac OS 10.15.3,Safari 13.0.5,1280x800,1277x673,Part 1 completed,Colors_Only_Dutch,6,Part 1 completed,,Accuracy_level_1,,"<div style=""font-size:60px;"">  </div>",,,,html-keyboard-response,7,22403,0.0-1.0-0.3,,,,,,,
9,1647697643883,19/03/2022 13:47:23,1647697643856,1,19/03/2022 14:47:23,73265,15,task-fatb,,20556879,BLIND,6094733,Intro Experiment: General explanations,complete,,,computer,Desktop or Laptop,Mac OS 10.15.3,Safari 13.0.5,1280x800,1277x673,Part 1 completed,Colors_Only_Dutch,6,Part 1 completed,,Accuracy_level_1,393,/task/320040/6/asset/blue.png,,,,image-keyboard-response,8,23907,0.0-1.0-1.3,,1,test, ,0.5571428571428572,1,0.10731666666666667
10,1647697643982,19/03/2022 13:47:23,1647697643960,1,19/03/2022 14:47:23,73265,15,task-fatb,,20556879,BLIND,6094733,Intro Experiment: General explanations,complete,,,computer,Desktop or Laptop,Mac OS 10.15.3,Safari 13.0.5,1280x800,1277x673,Part 1 completed,Colors_Only_Dutch,6,Part 1 completed,,Accuracy_level_1,,"<div style=""font-size:60px;"">  </div>",,,,html-keyboard-response,9,24012,0.0-1.0-0.4,,,,,,,
11,1647697645500,19/03/2022 13:47:25,1647697645465,1,19/03/2022 14:47:25,73265,15,task-fatb,,20556879,BLIND,6094733,Intro Experiment: General explanations,complete,,,computer,Desktop or Laptop,Mac OS 10.15.3,Safari 13.0.5,1280x800,1277x673,Part 1 completed,Colors_Only_Dutch,6,Part 1 completed,,Accuracy_level_1,405.00000000000364,/task/320040/6/asset/blue.png,,,,image-keyboard-response,10,25517,0.0-1.0-1.4,,1,test, ,0.5777777777777778,1,0.13413333333333333
12,1647697645591,19/03/2022 13:47:25,1647697645569,1,19/03/2022 14:47:25,73265,15,task-fatb,,20556879,BLIND,6094733,Intro Experiment: General explanations,complete,,,computer,Desktop or Laptop,Mac OS 10.15.3,Safari 13.0.5,1280x800,1277x673,Part 1 completed,Colors_Only_Dutch,6,Part 1 completed,,Accuracy_level_1,,"<div style=""font-size:60px;"">  </div>",,,,html-keyboard-response,11,25621,0.0-1.0-0.5,,,,,,,
13,1647697647094,19/03/2022 13:47:27,1647697647074,1,19/03/2022 14:47:27,73265,15,task-fatb,,20556879,BLIND,6094733,Intro Experiment: General explanations,complete,,,computer,Desktop or Laptop,Mac OS 10.15.3,Safari 13.0.5,1280x800,1277x673,Part 1 completed,Colors_Only_Dutch,6,Part 1 completed,,Accuracy_level_1,299.00000000000364,/task/320040/6/asset/blue.png,,,,image-keyboard-response,12,27126,0.0-1.0-1.5,,1,test, ,0.5909090909090909,1,0.16095
14,1647697647221,19/03/2022 13:47:27,1647697647178,1,19/03/2022 14:47:27,73265,15,task-fatb,,20556879,BLIND,6094733,Intro Experiment: General explanations,complete,,,computer,Desktop or Laptop,Mac OS 10.15.3,Safari 13.0.5,1280x800,1277x673,Part 1 completed,Colors_Only_Dutch,6,Part 1 completed,,Accuracy_level_1,,"<div style=""font-size:60px;"">  </div>",,,,html-keyboard-response,13,27230,0.0-1.0-0.6,,,,,,,
15,1647697648721,19/03/2022 13:47:28,1647697648683,1,19/03/2022 14:47:28,73265,15,task-fatb,,20556879,BLIND,6094733,Intro Experiment: General explanations,complete,,,computer,Desktop or Laptop,Mac OS 10.15.3,Safari 13.0.5,1280x800,1277x673,Part 1 completed,Colors_Only_Dutch,6,Part 1 completed,,Accuracy_level_1,412,/task/320040/6/asset/blue.png,,,,image-keyboard-response,14,28735,0.0-1.0-1.6,,1,test, ,0.6,1,0.18776666666666667
16,1647697648831,19/03/2022 13:47:28,1647697648787,1,19/03/2022 14:47:28,73265,15,task-fatb,,20556879,BLIND,6094733,Intro Experiment: General explanations,complete,,,computer,Desktop or Laptop,Mac OS 10.15.3,Safari 13.0.5,1280x800,1277x673,Part 1 completed,Colors_Only_Dutch,6,Part 1 completed,,Accuracy_level_1,,"<div style=""font-size:60px;"">  </div>",,,,html-keyboard-response,15,28838,0.0-1.0-0.7,,,,,,,
17,1647697650317,19/03/2022 13:47:30,1647697650292,1,19/03/2022 14:47:30,73265,15,task-fatb,,20556879,BLIND,6094733,Intro Experiment: General explanations,complete,,,computer,Desktop or Laptop,Mac OS 10.15.3,Safari 13.0.5,1280x800,1277x673,Part 1 completed,Colors_Only_Dutch,6,Part 1 completed,,Accuracy_level_1,563,/task/320040/6/asset/green.png,,,,image-keyboard-response,16,30344,0.0-1.0-1.7,,,test,,0.52,,0.21458333333333332
18,1647697650520,19/03/2022 13:47:30,1647697650496,1,19/03/2022 14:47:30,73265,15,task-fatb,,20556879,BLIND,6094733,Intro Experiment: General explanations,complete,,,computer,Desktop or Laptop,Mac OS 10.15.3,Safari 13.0.5,1280x800,1277x673,Part 1 completed,Colors_Only_Dutch,6,Part 1 completed,,Accuracy_level_1,,"<span style=""color:red;font-size:50px;font-weight: bold;"">FOUT!</span>",,,,html-keyboard-response,17,30548,0.0-1.0-2.7-0.7,,,,,,,
1,1647460497959,16/03/2022 19:54:57,1647460497720,1,16/03/2022 20:54:57,73265,15,task-fatb,,20470854,BLIND,6070227,Intro Experiment: General explanations,complete,,,computer,Desktop or Laptop,Windows 10,Chrome 99.0.4844.51,1366x768,1366x657,Part 1 completed,Colors_Only_Dutch,6,Part 1 completed,,Accuracy_level_1,43724,,,,,instructions,0,43732,0.0-0.0,,,,,,,
2,1647460498072,16/03/2022 19:54:58,1647460497855,1,16/03/2022 20:54:57,73265,15,task-fatb,,20470854,BLIND,6070227,Intro Experiment: General explanations,complete,,,computer,Desktop or Laptop,Windows 10,Chrome 99.0.4844.51,1366x768,1366x657,Part 1 completed,Colors_Only_Dutch,6,Part 1 completed,,Accuracy_level_1,,"<div style=""font-size:60px;"">  </div>",,,,html-keyboard-response,1,43868,0.0-1.0-0.0,,,,,,,
3,1647460499564,16/03/2022 19:54:59,1647460499395,1,16/03/2022 20:54:59,73265,15,task-fatb,,20470854,BLIND,6070227,Intro Experiment: General explanations,complete,,,computer,Desktop or Laptop,Windows 10,Chrome 99.0.4844.51,1366x768,1366x657,Part 1 completed,Colors_Only_Dutch,6,Part 1 completed,,Accuracy_level_1,,/task/320040/6/asset/red.png,,,,image-keyboard-response,2,45407,0.0-1.0-1.0,,,test,,1.3,1,0.027933333333333334
4,1647460499669,16/03/2022 19:54:59,1647460499508,1,16/03/2022 20:54:59,73265,15,task-fatb,,20470854,BLIND,6070227,Intro Experiment: General explanations,complete,,,computer,Desktop or Laptop,Windows 10,Chrome 99.0.4844.51,1366x768,1366x657,Part 1 completed,Colors_Only_Dutch,6,Part 1 completed,,Accuracy_level_1,,"<div style=""font-size:60px;"">  </div>",,,,html-keyboard-response,3,45521,0.0-1.0-0.1,,,,,,,
5,1647460501174,16/03/2022 19:55:01,1647460501019,1,16/03/2022 20:55:01,73265,15,task-fatb,,20470854,BLIND,6070227,Intro Experiment: General explanations,complete,,,computer,Desktop or Laptop,Windows 10,Chrome 99.0.4844.51,1366x768,1366x657,Part 1 completed,Colors_Only_Dutch,6,Part 1 completed,,Accuracy_level_1,554.8000001907349,/task/320040/6/asset/red.png,,,,image-keyboard-response,4,47031,0.0-1.0-1.1,,1,test, ,0.8666666666666667,1,0.055
6,1647460501295,16/03/2022 19:55:01,1647460501135,1,16/03/2022 20:55:01,73265,15,task-fatb,,20470854,BLIND,6070227,Intro Experiment: General explanations,complete,,,computer,Desktop or Laptop,Windows 10,Chrome 99.0.4844.51,1366x768,1366x657,Part 1 completed,Colors_Only_Dutch,6,Part 1 completed,,Accuracy_level_1,,"<div style=""font-size:60px;"">  </div>",,,,html-keyboard-response,5,47148,0.0-1.0-0.2,,,,,,,
7,1647460502794,16/03/2022 19:55:02,1647460502642,1,16/03/2022 20:55:02,73265,15,task-fatb,,20470854,BLIND,6070227,Intro Experiment: General explanations,complete,,,computer,Desktop or Laptop,Windows 10,Chrome 99.0.4844.51,1366x768,1366x657,Part 1 completed,Colors_Only_Dutch,6,Part 1 completed,,Accuracy_level_1,,/task/320040/6/asset/white.png,,,,image-keyboard-response,6,48655,0.0-1.0-1.2,,,test,,0.78,1,0.08205
8,1647460502925,16/03/2022 19:55:02,1647460502752,1,16/03/2022 20:55:02,73265,15,task-fatb,,20470854,BLIND,6070227,Intro Experiment: General explanations,complete,,,computer,Desktop or Laptop,Windows 10,Chrome 99.0.4844.51,1366x768,1366x657,Part 1 completed,Colors_Only_Dutch,6,Part 1 completed,,Accuracy_level_1,,"<div style=""font-size:60px;"">  </div>",,,,html-keyboard-response,7,48765,0.0-1.0-0.3,,,,,,,
9,1647460504441,16/03/2022 19:55:04,1647460504267,1,16/03/2022 20:55:04,73265,15,task-fatb,,20470854,BLIND,6070227,Intro Experiment: General explanations,complete,,,computer,Desktop or Laptop,Windows 10,Chrome 99.0.4844.51,1366x768,1366x657,Part 1 completed,Colors_Only_Dutch,6,Part 1 completed,,Accuracy_level_1,,/task/320040/6/asset/white.png,,,,image-keyboard-response,8,50280,0.0-1.0-1.3,,1,test, ,0.5571428571428572,,0.10913333333333333
10,1647460504664,16/03/2022 19:55:04,1647460504496,1,16/03/2022 20:55:04,73265,15,task-fatb,,20470854,BLIND,6070227,Intro Experiment: General explanations,complete,,,computer,Desktop or Laptop,Windows 10,Chrome 99.0.4844.51,1366x768,1366x657,Part 1 completed,Colors_Only_Dutch,6,Part 1 completed,,Accuracy_level_1,,"<span style=""color:red;font-size:50px;font-weight: bold;"">FOUT!</span>",,,,html-keyboard-response,9,50509,0.0-1.0-2.3-0.3,,,,,,,
11,1647460504757,16/03/2022 19:55:04,1647460504602,1,16/03/2022 20:55:04,73265,15,task-fatb,,20470854,BLIND,6070227,Intro Experiment: General explanations,complete,,,computer,Desktop or Laptop,Windows 10,Chrome 99.0.4844.51,1366x768,1366x657,Part 1 completed,Colors_Only_Dutch,6,Part 1 completed,,Accuracy_level_1,,"<div style=""font-size:60px;"">  </div>",,,,html-keyboard-response,10,50615,0.0-1.0-0.4,,,,,,,
12,1647460506288,16/03/2022 19:55:06,1647460506127,1,16/03/2022 20:55:06,73265,15,task-fatb,,20470854,BLIND,6070227,Intro Experiment: General explanations,complete,,,computer,Desktop or Laptop,Windows 10,Chrome 99.0.4844.51,1366x768,1366x657,Part 1 completed,Colors_Only_Dutch,6,Part 1 completed,,Accuracy_level_1,,/task/320040/6/asset/white.png,,,,image-keyboard-response,11,52140,0.0-1.0-1.4,,1,test, ,0.39,,0.14013333333333333
13,1647460506500,16/03/2022 19:55:06,1647460506341,1,16/03/2022 20:55:06,73265,15,task-fatb,,20470854,BLIND,6070227,Intro Experiment: General explanations,complete,,,computer,Desktop or Laptop,Windows 10,Chrome 99.0.4844.51,1366x768,1366x657,Part 1 completed,Colors_Only_Dutch,6,Part 1 completed,,Accuracy_level_1,,"<span style=""color:red;font-size:50px;font-weight: bold;"">FOUT!</span>",,,,html-keyboard-response,12,52354,0.0-1.0-2.4-0.4,,,,,,,
14,1647460506600,16/03/2022 19:55:06,1647460506450,1,16/03/2022 20:55:06,73265,15,task-fatb,,20470854,BLIND,6070227,Intro Experiment: General explanations,complete,,,computer,Desktop or Laptop,Windows 10,Chrome 99.0.4844.51,1366x768,1366x657,Part 1 completed,Colors_Only_Dutch,6,Part 1 completed,,Accuracy_level_1,,"<div style=""font-size:60px;"">  </div>",,,,html-keyboard-response,13,52463,0.0-1.0-0.5,,,,,,,
15,1647460508570,16/03/2022 19:55:08,1647460507956,1,16/03/2022 20:55:07,73265,15,task-fatb,,20470854,BLIND,6070227,Intro Experiment: General explanations,complete,,,computer,Desktop or Laptop,Windows 10,Chrome 99.0.4844.51,1366x768,1366x657,Part 1 completed,Colors_Only_Dutch,6,Part 1 completed,,Accuracy_level_1,,/task/320040/6/asset/pink.png,,,,image-keyboard-response,14,53969,0.0-1.0-1.5,,,test,,0.4,1,0.17061666666666667
16,1647460508729,16/03/2022 19:55:08,1647460508068,1,16/03/2022 20:55:08,73265,15,task-fatb,,20470854,BLIND,6070227,Intro Experiment: General explanations,complete,,,computer,Desktop or Laptop,Windows 10,Chrome 99.0.4844.51,1366x768,1366x657,Part 1 completed,Colors_Only_Dutch,6,Part 1 completed,,Accuracy_level_1,,"<div style=""font-size:60px;"">  </div>",,,,html-keyboard-response,15,54081,0.0-1.0-0.6,,,,,,,
17,1647460509728,16/03/2022 19:55:09,1647460509575,1,16/03/2022 20:55:09,73265,15,task-fatb,,20470854,BLIND,6070227,Intro Experiment: General explanations,complete,,,computer,Desktop or Laptop,Windows 10,Chrome 99.0.4844.51,1366x768,1366x657,Part 1 completed,Colors_Only_Dutch,6,Part 1 completed,,Accuracy_level_1,396.3999996185303,/task/320040/6/asset/pink.png,,,,image-keyboard-response,16,55588,0.0-1.0-1.6,,1,test, ,0.43333333333333335,1,0.1976
18,1647460509838,16/03/2022 19:55:09,1647460509684,1,16/03/2022 20:55:09,73265,15,task-fatb,,20470854,BLIND,6070227,Intro Experiment: General explanations,complete,,,computer,Desktop or Laptop,Windows 10,Chrome 99.0.4844.51,1366x768,1366x657,Part 1 completed,Colors_Only_Dutch,6,Part 1 completed,,Accuracy_level_1,,"<div style=""font-size:60px;"">  </div>",,,,html-keyboard-response,17,55697,0.0-1.0-0.7,,,,,,,
19,1647460511345,16/03/2022 19:55:11,1647460511192,1,16/03/2022 20:55:11,73265,15,task-fatb,,20470854,BLIND,6070227,Intro Experiment: General explanations,complete,,,computer,Desktop or Laptop,Windows 10,Chrome 99.0.4844.51,1366x768,1366x657,Part 1 completed,Colors_Only_Dutch,6,Part 1 completed,,Accuracy_level_1,,/task/320040/6/asset/pink.png,,,,image-keyboard-response,18,57205,0.0-1.0-1.7,,1,test, ,0.38235294117647056,,0.22455
20,1647460511558,16/03/2022 19:55:11,1647460511399,1,16/03/2022 20:55:11,73265,15,task-fatb,,20470854,BLIND,6070227,Intro Experiment: General explanations,complete,,,computer,Desktop or Laptop,Windows 10,Chrome 99.0.4844.51,1366x768,1366x657,Part 1 completed,Colors_Only_Dutch,6,Part 1 completed,,Accuracy_level_1,,"<span style=""color:red;font-size:50px;font-weight: bold;"">FOUT!</span>",,,,html-keyboard-response,19,57412,0.0-1.0-2.7-0.7,,,,,,,
1,1647361839734,15/03/2022 16:30:39,1647361839563,1,15/03/2022 17:30:39,73265,15,task-fatb,,20411419,BLIND,6054962,Intro Experiment: General explanations,complete,,,computer,Desktop or Laptop,Mac OS 10.15.7,Safari 15.2,1440x900,1440x820,Part 1 completed,Colors_Only_Dutch,6,Part 1 completed,,Accuracy_level_1,15174,,,,,instructions,0,15179,0.0-0.0,,,,,,,
2,1647361839858,15/03/2022 16:30:39,1647361839668,1,15/03/2022 17:30:39,73265,15,task-fatb,,20411419,BLIND,6054962,Intro Experiment: General explanations,complete,,,computer,Desktop or Laptop,Mac OS 10.15.7,Safari 15.2,1440x900,1440x820,Part 1 completed,Colors_Only_Dutch,6,Part 1 completed,,Accuracy_level_1,,"<div style=""font-size:60px;"">  </div>",,,,html-keyboard-response,1,15285,0.0-1.0-0.0,,,,,,,
3,1647361841301,15/03/2022 16:30:41,1647361841174,1,15/03/2022 17:30:41,73265,15,task-fatb,,20411419,BLIND,6054962,Intro Experiment: General explanations,complete,,,computer,Desktop or Laptop,Mac OS 10.15.7,Safari 15.2,1440x900,1440x820,Part 1 completed,Colors_Only_Dutch,6,Part 1 completed,,Accuracy_level_1,1497,/task/320040/6/asset/white.png,,,,image-keyboard-response,2,16790,0.0-1.0-1.0,,1,test, ,1.3,1,0.02685
4,1647361841438,15/03/2022 16:30:41,1647361841279,1,15/03/2022 17:30:41,73265,15,task-fatb,,20411419,BLIND,6054962,Intro Experiment: General explanations,complete,,,computer,Desktop or Laptop,Mac OS 10.15.7,Safari 15.2,1440x900,1440x820,Part 1 completed,Colors_Only_Dutch,6,Part 1 completed,,Accuracy_level_1,,"<div style=""font-size:60px;"">  </div>",,,,html-keyboard-response,3,16896,0.0-1.0-0.1,,,,,,,
5,1647361842944,15/03/2022 16:30:42,1647361842792,1,15/03/2022 17:30:42,73265,15,task-fatb,,20411419,BLIND,6054962,Intro Experiment: General explanations,complete,,,computer,Desktop or Laptop,Mac OS 10.15.7,Safari 15.2,1440x900,1440x820,Part 1 completed,Colors_Only_Dutch,6,Part 1 completed,,Accuracy_level_1,586,/task/320040/6/asset/white.png,,,,image-keyboard-response,4,18409,0.0-1.0-1.1,,1,test, ,0.8666666666666667,1,0.053816666666666665
6,1647361843037,15/03/2022 16:30:43,1647361842897,1,15/03/2022 17:30:42,73265,15,task-fatb,,20411419,BLIND,6054962,Intro Experiment: General explanations,complete,,,computer,Desktop or Laptop,Mac OS 10.15.7,Safari 15.2,1440x900,1440x820,Part 1 completed,Colors_Only_Dutch,6,Part 1 completed,,Accuracy_level_1,,"<div style=""font-size:60px;"">  </div>",,,,html-keyboard-response,5,18514,0.0-1.0-0.2,,,,,,,
7,1647361844540,15/03/2022 16:30:44,1647361844403,1,15/03/2022 17:30:44,73265,15,task-fatb,,20411419,BLIND,6054962,Intro Experiment: General explanations,complete,,,computer,Desktop or Laptop,Mac OS 10.15.7,Safari 15.2,1440x900,1440x820,Part 1 completed,Colors_Only_Dutch,6,Part 1 completed,,Accuracy_level_1,454,/task/320040/6/asset/white.png,,,,image-keyboard-response,6,20020,0.0-1.0-1.2,,1,test, ,0.78,1,0.08066666666666666
8,1647361844643,15/03/2022 16:30:44,1647361844508,1,15/03/2022 17:30:44,73265,15,task-fatb,,20411419,BLIND,6054962,Intro Experiment: General explanations,complete,,,computer,Desktop or Laptop,Mac OS 10.15.7,Safari 15.2,1440x900,1440x820,Part 1 completed,Colors_Only_Dutch,6,Part 1 completed,,Accuracy_level_1,,"<div style=""font-size:60px;"">  </div>",,,,html-keyboard-response,7,20125,0.0-1.0-0.3,,,,,,,
9,1647361846159,15/03/2022 16:30:46,1647361846014,1,15/03/2022 17:30:46,73265,15,task-fatb,,20411419,BLIND,6054962,Intro Experiment: General explanations,complete,,,computer,Desktop or Laptop,Mac OS 10.15.7,Safari 15.2,1440x900,1440x820,Part 1 completed,Colors_Only_Dutch,6,Part 1 completed,,Accuracy_level_1,470,/task/320040/6/asset/white.png,,,,image-keyboard-response,8,21630,0.0-1.0-1.3,,1,test, ,0.7428571428571429,1,0.10751666666666666
10,1647361846262,15/03/2022 16:30:46,1647361846119,1,15/03/2022 17:30:46,73265,15,task-fatb,,20411419,BLIND,6054962,Intro Experiment: General explanations,complete,,,computer,Desktop or Laptop,Mac OS 10.15.7,Safari 15.2,1440x900,1440x820,Part 1 completed,Colors_Only_Dutch,6,Part 1 completed,,Accuracy_level_1,,"<div style=""font-size:60px;"">  </div>",,,,html-keyboard-response,9,21736,0.0-1.0-0.4,,,,,,,
11,1647361847777,15/03/2022 16:30:47,1647361847627,1,15/03/2022 17:30:47,73265,15,task-fatb,,20411419,BLIND,6054962,Intro Experiment: General explanations,complete,,,computer,Desktop or Laptop,Mac OS 10.15.7,Safari 15.2,1440x900,1440x820,Part 1 completed,Colors_Only_Dutch,6,Part 1 completed,,Accuracy_level_1,,/task/320040/6/asset/green.png,,,,image-keyboard-response,10,23243,0.0-1.0-1.4,,,test,,0.7222222222222222,1,0.1344
12,1647361847870,15/03/2022 16:30:47,1647361847732,1,15/03/2022 17:30:47,73265,15,task-fatb,,20411419,BLIND,6054962,Intro Experiment: General explanations,complete,,,computer,Desktop or Laptop,Mac OS 10.15.7,Safari 15.2,1440x900,1440x820,Part 1 completed,Colors_Only_Dutch,6,Part 1 completed,,Accuracy_level_1,,"<div style=""font-size:60px;"">  </div>",,,,html-keyboard-response,11,23349,0.0-1.0-0.5,,,,,,,
13,1647361849375,15/03/2022 16:30:49,1647361849237,1,15/03/2022 17:30:49,73265,15,task-fatb,,20411419,BLIND,6054962,Intro Experiment: General explanations,complete,,,computer,Desktop or Laptop,Mac OS 10.15.7,Safari 15.2,1440x900,1440x820,Part 1 completed,Colors_Only_Dutch,6,Part 1 completed,,Accuracy_level_1,626.0000000000036,/task/320040/6/asset/black.png,,,,image-keyboard-response,12,24854,0.0-1.0-1.5,,,test,,0.5909090909090909,,0.16123333333333334
14,1647361849595,15/03/2022 16:30:49,1647361849443,1,15/03/2022 17:30:49,73265,15,task-fatb,,20411419,BLIND,6054962,Intro Experiment: General explanations,complete,,,computer,Desktop or Laptop,Mac OS 10.15.7,Safari 15.2,1440x900,1440x820,Part 1 completed,Colors_Only_Dutch,6,Part 1 completed,,Accuracy_level_1,,"<span style=""color:red;font-size:50px;font-weight: bold;"">FOUT!</span>",,,,html-keyboard-response,13,25059,0.0-1.0-2.5-0.5,,,,,,,
15,1647361849689,15/03/2022 16:30:49,1647361849547,1,15/03/2022 17:30:49,73265,15,task-fatb,,20411419,BLIND,6054962,Intro Experiment: General explanations,complete,,,computer,Desktop or Laptop,Mac OS 10.15.7,Safari 15.2,1440x900,1440x820,Part 1 completed,Colors_Only_Dutch,6,Part 1 completed,,Accuracy_level_1,,"<div style=""font-size:60px;"">  </div>",,,,html-keyboard-response,14,25164,0.0-1.0-0.6,,,,,,,
16,1647361851205,15/03/2022 16:30:51,1647361851060,1,15/03/2022 17:30:51,73265,15,task-fatb,,20411419,BLIND,6054962,Intro Experiment: General explanations,complete,,,computer,Desktop or Laptop,Mac OS 10.15.7,Safari 15.2,1440x900,1440x820,Part 1 completed,Colors_Only_Dutch,6,Part 1 completed,,Accuracy_level_1,678,/task/320040/6/asset/black.png,,,,image-keyboard-response,15,26677,0.0-1.0-1.6,,1,test, ,0.5571428571428572,1,0.19161666666666666
17,1647361851314,15/03/2022 16:30:51,1647361851164,1,15/03/2022 17:30:51,73265,15,task-fatb,,20411419,BLIND,6054962,Intro Experiment: General explanations,complete,,,computer,Desktop or Laptop,Mac OS 10.15.7,Safari 15.2,1440x900,1440x820,Part 1 completed,Colors_Only_Dutch,6,Part 1 completed,,Accuracy_level_1,,"<div style=""font-size:60px;"">  </div>",,,,html-keyboard-response,16,26781,0.0-1.0-0.7,,,,,,,
18,1647361852861,15/03/2022 16:30:52,1647361852670,1,15/03/2022 17:30:52,73265,15,task-fatb,,20411419,BLIND,6054962,Intro Experiment: General explanations,complete,,,computer,Desktop or Laptop,Mac OS 10.15.7,Safari 15.2,1440x900,1440x820,Part 1 completed,Colors_Only_Dutch,6,Part 1 completed,,Accuracy_level_1,,/task/320040/6/asset/pink.png,,,,image-keyboard-response,17,28287,0.0-1.0-1.7,,,test,,0.56875,1,0.21845
1,1647345779465,15/03/2022 12:02:59,1647345779339,1,15/03/2022 13:02:59,73265,15,task-fatb,,20399565,BLIND,6051971,Intro Experiment: General explanations,complete,,,computer,Desktop or Laptop,Windows 10,Chrome 99.0.4844.51,1280x720,1280x569,Part 1 completed,Colors_Only_Dutch,6,Part 1 completed,,Accuracy_level_1,26675.400000000023,,,,,instructions,0,26691,0.0-0.0,,,,,,,
2,1647345779559,15/03/2022 12:02:59,1647345779459,1,15/03/2022 13:02:59,73265,15,task-fatb,,20399565,BLIND,6051971,Intro Experiment: General explanations,complete,,,computer,Desktop or Laptop,Windows 10,Chrome 99.0.4844.51,1280x720,1280x569,Part 1 completed,Colors_Only_Dutch,6,Part 1 completed,,Accuracy_level_1,,"<div style=""font-size:60px;"">  </div>",,,,html-keyboard-response,1,26812,0.0-1.0-0.0,,,,,,,
3,1647345781012,15/03/2022 12:03:01,1647345780981,1,15/03/2022 13:03:00,73265,15,task-fatb,,20399565,BLIND,6051971,Intro Experiment: General explanations,complete,,,computer,Desktop or Laptop,Windows 10,Chrome 99.0.4844.51,1280x720,1280x569,Part 1 completed,Colors_Only_Dutch,6,Part 1 completed,,Accuracy_level_1,,/task/320040/6/asset/black.png,,,,image-keyboard-response,2,28333,0.0-1.0-1.0,,,test,,1.3,1,0.027383333333333332
4,1647345781129,15/03/2022 12:03:01,1647345781087,1,15/03/2022 13:03:01,73265,15,task-fatb,,20399565,BLIND,6051971,Intro Experiment: General explanations,complete,,,computer,Desktop or Laptop,Windows 10,Chrome 99.0.4844.51,1280x720,1280x569,Part 1 completed,Colors_Only_Dutch,6,Part 1 completed,,Accuracy_level_1,,"<div style=""font-size:60px;"">  </div>",,,,html-keyboard-response,3,28439,0.0-1.0-0.1,,,,,,,
5,1647345782670,15/03/2022 12:03:02,1647345782609,1,15/03/2022 13:03:02,73265,15,task-fatb,,20399565,BLIND,6051971,Intro Experiment: General explanations,complete,,,computer,Desktop or Laptop,Windows 10,Chrome 99.0.4844.51,1280x720,1280x569,Part 1 completed,Colors_Only_Dutch,6,Part 1 completed,,Accuracy_level_1,546.6999999999534,/task/320040/6/asset/black.png,,,,image-keyboard-response,4,29962,0.0-1.0-1.1,,1,test, ,0.8666666666666667,1,0.054516666666666665
6,1647345782756,15/03/2022 12:03:02,1647345782719,1,15/03/2022 13:03:02,73265,15,task-fatb,,20399565,BLIND,6051971,Intro Experiment: General explanations,complete,,,computer,Desktop or Laptop,Windows 10,Chrome 99.0.4844.51,1280x720,1280x569,Part 1 completed,Colors_Only_Dutch,6,Part 1 completed,,Accuracy_level_1,,"<div style=""font-size:60px;"">  </div>",,,,html-keyboard-response,5,30072,0.0-1.0-0.2,,,,,,,
7,1647345784281,15/03/2022 12:03:04,1647345784225,1,15/03/2022 13:03:04,73265,15,task-fatb,,20399565,BLIND,6051971,Intro Experiment: General explanations,complete,,,computer,Desktop or Laptop,Windows 10,Chrome 99.0.4844.51,1280x720,1280x569,Part 1 completed,Colors_Only_Dutch,6,Part 1 completed,,Accuracy_level_1,484.19999999995343,/task/320040/6/asset/black.png,,,,image-keyboard-response,6,31578,0.0-1.0-1.2,,1,test, ,0.78,1,0.08145
8,1647345784368,15/03/2022 12:03:04,1647345784329,1,15/03/2022 13:03:04,73265,15,task-fatb,,20399565,BLIND,6051971,Intro Experiment: General explanations,complete,,,computer,Desktop or Laptop,Windows 10,Chrome 99.0.4844.51,1280x720,1280x569,Part 1 completed,Colors_Only_Dutch,6,Part 1 completed,,Accuracy_level_1,,"<div style=""font-size:60px;"">  </div>",,,,html-keyboard-response,7,31682,0.0-1.0-0.3,,,,,,,
9,1647345785884,15/03/2022 12:03:05,1647345785847,1,15/03/2022 13:03:05,73265,15,task-fatb,,20399565,BLIND,6051971,Intro Experiment: General explanations,complete,,,computer,Desktop or Laptop,Windows 10,Chrome 99.0.4844.51,1280x720,1280x569,Part 1 completed,Colors_Only_Dutch,6,Part 1 completed,,Accuracy_level_1,556.8999999999069,/task/320040/6/asset/black.png,,,,image-keyboard-response,8,33199,0.0-1.0-1.3,,1,test, ,0.7428571428571429,1,0.10848333333333333
10,1647345785974,15/03/2022 12:03:05,1647345785959,1,15/03/2022 13:03:05,73265,15,task-fatb,,20399565,BLIND,6051971,Intro Experiment: General explanations,complete,,,computer,Desktop or Laptop,Windows 10,Chrome 99.0.4844.51,1280x720,1280x569,Part 1 completed,Colors_Only_Dutch,6,Part 1 completed,,Accuracy_level_1,,"<div style=""font-size:60px;"">  </div>",,,,html-keyboard-response,9,33312,0.0-1.0-0.4,,,,,,,
11,1647345787527,15/03/2022 12:03:07,1647345787471,1,15/03/2022 13:03:07,73265,15,task-fatb,,20399565,BLIND,6051971,Intro Experiment: General explanations,complete,,,computer,Desktop or Laptop,Windows 10,Chrome 99.0.4844.51,1280x720,1280x569,Part 1 completed,Colors_Only_Dutch,6,Part 1 completed,,Accuracy_level_1,887.5,/task/320040/6/asset/black.png,,,,image-keyboard-response,10,34824,0.0-1.0-1.4,,1,test, ,0.7222222222222222,1,0.13555
12,1647345787633,15/03/2022 12:03:07,1647345787582,1,15/03/2022 13:03:07,73265,15,task-fatb,,20399565,BLIND,6051971,Intro Experiment: General explanations,complete,,,computer,Desktop or Laptop,Windows 10,Chrome 99.0.4844.51,1280x720,1280x569,Part 1 completed,Colors_Only_Dutch,6,Part 1 completed,,Accuracy_level_1,,"<div style=""font-size:60px;"">  </div>",,,,html-keyboard-response,11,34934,0.0-1.0-0.5,,,,,,,
13,1647345789137,15/03/2022 12:03:09,1647345789102,1,15/03/2022 13:03:09,73265,15,task-fatb,,20399565,BLIND,6051971,Intro Experiment: General explanations,complete,,,computer,Desktop or Laptop,Windows 10,Chrome 99.0.4844.51,1280x720,1280x569,Part 1 completed,Colors_Only_Dutch,6,Part 1 completed,,Accuracy_level_1,,/task/320040/6/asset/pink.png,,,,image-keyboard-response,12,36454,0.0-1.0-1.5,,,test,,0.7090909090909091,1,0.16273333333333334
14,1647345789232,15/03/2022 12:03:09,1647345789213,1,15/03/2022 13:03:09,73265,15,task-fatb,,20399565,BLIND,6051971,Intro Experiment: General explanations,complete,,,computer,Desktop or Laptop,Windows 10,Chrome 99.0.4844.51,1280x720,1280x569,Part 1 completed,Colors_Only_Dutch,6,Part 1 completed,,Accuracy_level_1,,"<div style=""font-size:60px;"">  </div>",,,,html-keyboard-response,13,36566,0.0-1.0-0.6,,,,,,,
15,1647345790801,15/03/2022 12:03:10,1647345790736,1,15/03/2022 13:03:10,73265,15,task-fatb,,20399565,BLIND,6051971,Intro Experiment: General explanations,complete,,,computer,Desktop or Laptop,Windows 10,Chrome 99.0.4844.51,1280x720,1280x569,Part 1 completed,Colors_Only_Dutch,6,Part 1 completed,,Accuracy_level_1,376.5,/task/320040/6/asset/pink.png,,,,image-keyboard-response,14,38089,0.0-1.0-1.6,,1,test, ,0.7,1,0.18996666666666667
16,1647345790878,15/03/2022 12:03:10,1647345790848,1,15/03/2022 13:03:10,73265,15,task-fatb,,20399565,BLIND,6051971,Intro Experiment: General explanations,complete,,,computer,Desktop or Laptop,Windows 10,Chrome 99.0.4844.51,1280x720,1280x569,Part 1 completed,Colors_Only_Dutch,6,Part 1 completed,,Accuracy_level_1,,"<div style=""font-size:60px;"">  </div>",,,,html-keyboard-response,15,38200,0.0-1.0-0.7,,,,,,,
17,1647345792395,15/03/2022 12:03:12,1647345792358,1,15/03/2022 13:03:12,73265,15,task-fatb,,20399565,BLIND,6051971,Intro Experiment: General explanations,complete,,,computer,Desktop or Laptop,Windows 10,Chrome 99.0.4844.51,1280x720,1280x569,Part 1 completed,Colors_Only_Dutch,6,Part 1 completed,,Accuracy_level_1,,/task/320040/6/asset/white.png,,,,image-keyboard-response,16,39711,0.0-1.0-1.7,,,test,,0.6933333333333334,1,0.217
1,1647196270685,13/03/2022 18:31:10,1647196270446,1,13/03/2022 19:31:10,73265,15,task-fatb,,20346650,BLIND,6034899,Intro Experiment: General explanations,complete,,,computer,Desktop or Laptop,Windows 10,Chrome 99.0.4844.51,1536x864,1536x722,Part 1 completed,Colors_Only_Dutch,6,Part 1 completed,,Accuracy_level_1,15951.10000000894,,,,,instructions,0,15954,0.0-0.0,,,,,,,
2,1647196270772,13/03/2022 18:31:10,1647196270568,1,13/03/2022 19:31:10,73265,15,task-fatb,,20346650,BLIND,6034899,Intro Experiment: General explanations,complete,,,computer,Desktop or Laptop,Windows 10,Chrome 99.0.4844.51,1536x864,1536x722,Part 1 completed,Colors_Only_Dutch,6,Part 1 completed,,Accuracy_level_1,,"<div style=""font-size:60px;"">  </div>",,,,html-keyboard-response,1,16077,0.0-1.0-0.0,,,,,,,
