Event Index,UTC Timestamp,UTC Date,Local Timestamp,Local Timezone,Local Date,Experiment ID,Experiment Version,Tree Node Key,Repeat Key,Schedule ID,Participant Public ID,Participant Private ID,Participant Starting Group,Participant Status,Participant Completion Code,Participant External Session ID,Participant Device Type,Participant Device,Participant OS,Participant Browser,Participant Monitor Size,Participant Viewport Size,Checkpoint,Task Name,Task Version,checkpoint-yiku,checkpoint-gn26,randomiser-2vg5,Reaction Time,Stimulus,Key Press,Test Part,Correct Response,Trial Type,Trial Index,Time Elapsed,Internal Node ID,Correct,accuracy_pic_trial,accuracy,trial_dur,match,accuracy_color_trial,prop_correct,minutes,,accuracy_percentage,phase,correct_resp,correct_response
1,1647007433684,11/03/2022 14:03:53,1647007433546,1,11/03/2022 15:03:53,73265,15,task-2i7q,,20300996,BLIND,6021527,Intro Experiment: General explanations,complete,,,computer,Desktop or Laptop,Windows 10,Chrome 99.0.4844.51,1536x864,1536x864,Part 1 completed,Basic Experiment_Dutch_Acc1,9,Part 1 completed,,Accuracy_level_1,,,,,,fullscreen,0,11688,0.0-0.0,,,,,,,,,,,,,
2,1647007454571,11/03/2022 14:04:14,1647007454454,1,11/03/2022 15:04:14,73265,15,task-2i7q,,20300996,BLIND,6021527,Intro Experiment: General explanations,complete,,,computer,Desktop or Laptop,Windows 10,Chrome 99.0.4844.51,1536x864,1536x864,Part 1 completed,Basic Experiment_Dutch_Acc1,9,Part 1 completed,,Accuracy_level_1,20902.299999952316,,,,,instructions,1,32597,0.0-1.0,,,,,,,,,2022-03-11T14:04:14.454Z,[1],test,,
3,1647007456036,11/03/2022 14:04:16,1647007455960,1,11/03/2022 15:04:15,73265,15,task-2i7q,,20300996,BLIND,6021527,Intro Experiment: General explanations,complete,,,computer,Desktop or Laptop,Windows 10,Chrome 99.0.4844.51,1536x864,1536x864,Part 1 completed,Basic Experiment_Dutch_Acc1,9,Part 1 completed,,Accuracy_level_1,947.6999998092651,/task/320432/9/asset/elephant.jpg,,,f,image-keyboard-response,2,34103,0.0-2.0-0.0,,1,1,1500,,,0.7,,,,test,,f
4,1647007457542,11/03/2022 14:04:17,1647007457464,1,11/03/2022 15:04:17,73265,15,task-2i7q,,20300996,BLIND,6021527,Intro Experiment: General explanations,complete,,,computer,Desktop or Laptop,Windows 10,Chrome 99.0.4844.51,1536x864,1536x864,Part 1 completed,Basic Experiment_Dutch_Acc1,9,Part 1 completed,,Accuracy_level_1,,/task/320432/9/asset/black.png,,, ,image-keyboard-response,3,35607,0.0-2.0-2.0,,,,1500,1,,0.35,0.05015,,,test,, 
5,1647007459063,11/03/2022 14:04:19,1647007458968,1,11/03/2022 15:04:18,73265,15,task-2i7q,,20300996,BLIND,6021527,Intro Experiment: General explanations,complete,,,computer,Desktop or Laptop,Windows 10,Chrome 99.0.4844.51,1536x864,1536x864,Part 1 completed,Basic Experiment_Dutch_Acc1,9,Part 1 completed,,Accuracy_level_1,753.7000000476837,/task/320432/9/asset/pear.jpg,,,j,image-keyboard-response,4,37112,0.0-2.0-0.1,,1,1,1500,,,0.4666666666666666,,,,test,,j
6,1647007460923,11/03/2022 14:04:20,1647007460473,1,11/03/2022 15:04:20,73265,15,task-2i7q,,20300996,BLIND,6021527,Intro Experiment: General explanations,complete,,,computer,Desktop or Laptop,Windows 10,Chrome 99.0.4844.51,1536x864,1536x864,Part 1 completed,Basic Experiment_Dutch_Acc1,9,Part 1 completed,,Accuracy_level_1,403.7000000476837,/task/320432/9/asset/black.png,,, ,image-keyboard-response,5,38616,0.0-2.0-2.1,,,1,1500,1,1,0.675,0.10031666666666667,,,test,, 
7,1647007462085,11/03/2022 14:04:22,1647007462007,1,11/03/2022 15:04:22,73265,15,task-2i7q,,20300996,BLIND,6021527,Intro Experiment: General explanations,complete,,,computer,Desktop or Laptop,Windows 10,Chrome 99.0.4844.51,1536x864,1536x864,Part 1 completed,Basic Experiment_Dutch_Acc1,9,Part 1 completed,,Accuracy_level_1,606.5999999046326,/task/320432/9/asset/pear.jpg,,,j,image-keyboard-response,6,40150,0.0-2.0-0.2,,1,1,1530,,,0.68,,,,test,,j
8,1647007463660,11/03/2022 14:04:23,1647007463573,1,11/03/2022 15:04:23,73265,15,task-2i7q,,20300996,BLIND,6021527,Intro Experiment: General explanations,complete,,,computer,Desktop or Laptop,Windows 10,Chrome 99.0.4844.51,1536x864,1536x864,Part 1 completed,Basic Experiment_Dutch_Acc1,9,Part 1 completed,,Accuracy_level_1,784.7000000476837,/task/320432/9/asset/black.png,,, ,image-keyboard-response,7,41716,0.0-2.0-2.2,,,1,1560,1,1,0.7833333333333333,0.15198333333333333,,,test,, 
9,1647007465253,11/03/2022 14:04:25,1647007465166,1,11/03/2022 15:04:25,73265,15,task-2i7q,,20300996,BLIND,6021527,Intro Experiment: General explanations,complete,,,computer,Desktop or Laptop,Windows 10,Chrome 99.0.4844.51,1536x864,1536x864,Part 1 completed,Basic Experiment_Dutch_Acc1,9,Part 1 completed,,Accuracy_level_1,614.7000000476837,/task/320432/9/asset/elephant.jpg,,,f,image-keyboard-response,8,43310,0.0-2.0-0.3,,1,1,1590,,,0.7714285714285715,,,,test,,f
10,1647007466878,11/03/2022 14:04:26,1647007466791,1,11/03/2022 15:04:26,73265,15,task-2i7q,,20300996,BLIND,6021527,Intro Experiment: General explanations,complete,,,computer,Desktop or Laptop,Windows 10,Chrome 99.0.4844.51,1536x864,1536x864,Part 1 completed,Basic Experiment_Dutch_Acc1,9,Part 1 completed,,Accuracy_level_1,488.90000009536743,/task/320432/9/asset/black.png,,, ,image-keyboard-response,9,44935,0.0-2.0-2.3,,,1,1620,1,1,0.8374999999999999,0.20561666666666667,,,test,, 
11,1647007468535,11/03/2022 14:04:28,1647007468445,1,11/03/2022 15:04:28,73265,15,task-2i7q,,20300996,BLIND,6021527,Intro Experiment: General explanations,complete,,,computer,Desktop or Laptop,Windows 10,Chrome 99.0.4844.51,1536x864,1536x864,Part 1 completed,Basic Experiment_Dutch_Acc1,9,Part 1 completed,,Accuracy_level_1,650.5,/task/320432/9/asset/house.jpg,,,f,image-keyboard-response,10,46589,0.0-2.0-0.4,,1,1,1650,,,0.8222222222222223,,,,test,,f
12,1647007470216,11/03/2022 14:04:30,1647007470131,1,11/03/2022 15:04:30,73265,15,task-2i7q,,20300996,BLIND,6021527,Intro Experiment: General explanations,complete,,,computer,Desktop or Laptop,Windows 10,Chrome 99.0.4844.51,1536x864,1536x864,Part 1 completed,Basic Experiment_Dutch_Acc1,9,Part 1 completed,,Accuracy_level_1,,/task/320432/9/asset/green.png,,,,image-keyboard-response,11,48274,0.0-2.0-2.4,,,1,1680,,1,0.8699999999999999,0.2612833333333333,,,test,,
13,1647007471922,11/03/2022 14:04:31,1647007471844,1,11/03/2022 15:04:31,73265,15,task-2i7q,,20300996,BLIND,6021527,Intro Experiment: General explanations,complete,,,computer,Desktop or Laptop,Windows 10,Chrome 99.0.4844.51,1536x864,1536x864,Part 1 completed,Basic Experiment_Dutch_Acc1,9,Part 1 completed,,Accuracy_level_1,661.2999999523163,/task/320432/9/asset/truck.jpg,,,f,image-keyboard-response,12,49987,0.0-2.0-0.5,,1,1,1710,,,0.8545454545454546,,,,test,,f
14,1647007473672,11/03/2022 14:04:33,1647007473588,1,11/03/2022 15:04:33,73265,15,task-2i7q,,20300996,BLIND,6021527,Intro Experiment: General explanations,complete,,,computer,Desktop or Laptop,Windows 10,Chrome 99.0.4844.51,1536x864,1536x864,Part 1 completed,Basic Experiment_Dutch_Acc1,9,Part 1 completed,,Accuracy_level_1,497.09999990463257,/task/320432/9/asset/green.png,,, ,image-keyboard-response,13,51732,0.0-2.0-2.5,,,1,1740,1,1,0.8916666666666666,0.3189,,,test,, 
15,1647007475457,11/03/2022 14:04:35,1647007475362,1,11/03/2022 15:04:35,73265,15,task-2i7q,,20300996,BLIND,6021527,Intro Experiment: General explanations,complete,,,computer,Desktop or Laptop,Windows 10,Chrome 99.0.4844.51,1536x864,1536x864,Part 1 completed,Basic Experiment_Dutch_Acc1,9,Part 1 completed,,Accuracy_level_1,546.6000001430511,/task/320432/9/asset/pear.jpg,,,j,image-keyboard-response,14,53506,0.0-2.0-0.6,,1,1,1770,,,0.8769230769230769,,,,test,,j
16,1647007477250,11/03/2022 14:04:37,1647007477168,1,11/03/2022 15:04:37,73265,15,task-2i7q,,20300996,BLIND,6021527,Intro Experiment: General explanations,complete,,,computer,Desktop or Laptop,Windows 10,Chrome 99.0.4844.51,1536x864,1536x864,Part 1 completed,Basic Experiment_Dutch_Acc1,9,Part 1 completed,,Accuracy_level_1,420.60000014305115,/task/320432/9/asset/green.png,,, ,image-keyboard-response,15,55312,0.0-2.0-2.6,,,1,1800,1,1,0.9071428571428571,0.37856666666666666,,,test,, 
17,1647007479181,11/03/2022 14:04:39,1647007479002,1,11/03/2022 15:04:39,73265,15,task-2i7q,,20300996,BLIND,6021527,Intro Experiment: General explanations,complete,,,computer,Desktop or Laptop,Windows 10,Chrome 99.0.4844.51,1536x864,1536x864,Part 1 completed,Basic Experiment_Dutch_Acc1,9,Part 1 completed,,Accuracy_level_1,601.7000000476837,/task/320432/9/asset/truck.jpg,,,f,image-keyboard-response,16,57146,0.0-2.0-0.7,,1,1,1830,,,0.8933333333333332,,,,test,,f
18,1647007480947,11/03/2022 14:04:40,1647007480867,1,11/03/2022 15:04:40,73265,15,task-2i7q,,20300996,BLIND,6021527,Intro Experiment: General explanations,complete,,,computer,Desktop or Laptop,Windows 10,Chrome 99.0.4844.51,1536x864,1536x864,Part 1 completed,Basic Experiment_Dutch_Acc1,9,Part 1 completed,,Accuracy_level_1,,/task/320432/9/asset/pink.png,,,,image-keyboard-response,17,59010,0.0-2.0-2.7,,,1,1860,,1,0.91875,0.44021666666666665,,,test,,
19,1647007482839,11/03/2022 14:04:42,1647007482761,1,11/03/2022 15:04:42,73265,15,task-2i7q,,20300996,BLIND,6021527,Intro Experiment: General explanations,complete,,,computer,Desktop or Laptop,Windows 10,Chrome 99.0.4844.51,1536x864,1536x864,Part 1 completed,Basic Experiment_Dutch_Acc1,9,Part 1 completed,,Accuracy_level_1,527.1000001430511,/task/320432/9/asset/house.jpg,,,f,image-keyboard-response,18,60904,0.0-2.1-0.8,,1,1,1890,,,0.9058823529411765,,,,test,,f
20,1647007484853,11/03/2022 14:04:44,1647007484688,1,11/03/2022 15:04:44,73265,15,task-2i7q,,20300996,BLIND,6021527,Intro Experiment: General explanations,complete,,,computer,Desktop or Laptop,Windows 10,Chrome 99.0.4844.51,1536x864,1536x864,Part 1 completed,Basic Experiment_Dutch_Acc1,9,Part 1 completed,,Accuracy_level_1,,/task/320432/9/asset/red.png,,,,image-keyboard-response,19,62832,0.0-2.1-2.8,,,1,1920,,1,0.9277777777777779,0.5039,,,test,,
21,1647007487335,11/03/2022 14:04:47,1647007486642,1,11/03/2022 15:04:46,73265,15,task-2i7q,,20300996,BLIND,6021527,Intro Experiment: General explanations,complete,,,computer,Desktop or Laptop,Windows 10,Chrome 99.0.4844.51,1536x864,1536x864,Part 1 completed,Basic Experiment_Dutch_Acc1,9,Part 1 completed,,Accuracy_level_1,675.2000000476837,/task/320432/9/asset/glass.jpg,,,j,image-keyboard-response,20,64785,0.0-2.1-0.9,,1,1,1950,,,0.9157894736842105,,,,test,,j
22,1647007488704,11/03/2022 14:04:48,1647007488626,1,11/03/2022 15:04:48,73265,15,task-2i7q,,20300996,BLIND,6021527,Intro Experiment: General explanations,complete,,,computer,Desktop or Laptop,Windows 10,Chrome 99.0.4844.51,1536x864,1536x864,Part 1 completed,Basic Experiment_Dutch_Acc1,9,Part 1 completed,,Accuracy_level_1,403.30000019073486,/task/320432/9/asset/red.png,,, ,image-keyboard-response,21,66770,0.0-2.1-2.9,,,1,1980,1,1,0.9349999999999999,0.5695333333333333,,,test,, 
23,1647007490727,11/03/2022 14:04:50,1647007490640,1,11/03/2022 15:04:50,73265,15,task-2i7q,,20300996,BLIND,6021527,Intro Experiment: General explanations,complete,,,computer,Desktop or Laptop,Windows 10,Chrome 99.0.4844.51,1536x864,1536x864,Part 1 completed,Basic Experiment_Dutch_Acc1,9,Part 1 completed,,Accuracy_level_1,774.5,/task/320432/9/asset/plane.jpg,,,f,image-keyboard-response,22,68783,0.0-2.1-0.10,,1,1,2010,,,0.9238095238095237,,,,test,,f
24,1647007492761,11/03/2022 14:04:52,1647007492685,1,11/03/2022 15:04:52,73265,15,task-2i7q,,20300996,BLIND,6021527,Intro Experiment: General explanations,complete,,,computer,Desktop or Laptop,Windows 10,Chrome 99.0.4844.51,1536x864,1536x864,Part 1 completed,Basic Experiment_Dutch_Acc1,9,Part 1 completed,,Accuracy_level_1,408.2000000476837,/task/320432/9/asset/red.png,,, ,image-keyboard-response,23,70828,0.0-2.1-2.10,,,1,2040,1,1,0.9409090909090909,0.6371833333333333,,,test,, 
25,1647007494835,11/03/2022 14:04:54,1647007494759,1,11/03/2022 15:04:54,73265,15,task-2i7q,,20300996,BLIND,6021527,Intro Experiment: General explanations,complete,,,computer,Desktop or Laptop,Windows 10,Chrome 99.0.4844.51,1536x864,1536x864,Part 1 completed,Basic Experiment_Dutch_Acc1,9,Part 1 completed,,Accuracy_level_1,626.7000000476837,/task/320432/9/asset/glass.jpg,,,j,image-keyboard-response,24,72903,0.0-2.1-0.11,,1,1,2070,,,0.9304347826086956,,,,test,,j
26,1647007496940,11/03/2022 14:04:56,1647007496864,1,11/03/2022 15:04:56,73265,15,task-2i7q,,20300996,BLIND,6021527,Intro Experiment: General explanations,complete,,,computer,Desktop or Laptop,Windows 10,Chrome 99.0.4844.51,1536x864,1536x864,Part 1 completed,Basic Experiment_Dutch_Acc1,9,Part 1 completed,,Accuracy_level_1,,/task/320432/9/asset/purple.png,,,,image-keyboard-response,25,75007,0.0-2.1-2.11,,,1,2100,,1,0.9458333333333334,0.7068333333333333,,,test,,
27,1647007499081,11/03/2022 14:04:59,1647007498998,1,11/03/2022 15:04:58,73265,15,task-2i7q,,20300996,BLIND,6021527,Intro Experiment: General explanations,complete,,,computer,Desktop or Laptop,Windows 10,Chrome 99.0.4844.51,1536x864,1536x864,Part 1 completed,Basic Experiment_Dutch_Acc1,9,Part 1 completed,,Accuracy_level_1,573.1999998092651,/task/320432/9/asset/plane.jpg,,,f,image-keyboard-response,26,77142,0.0-2.1-0.12,,1,1,2130,,,0.9359999999999999,,,,test,,f
28,1647007501254,11/03/2022 14:05:01,1647007501164,1,11/03/2022 15:05:01,73265,15,task-2i7q,,20300996,BLIND,6021527,Intro Experiment: General explanations,complete,,,computer,Desktop or Laptop,Windows 10,Chrome 99.0.4844.51,1536x864,1536x864,Part 1 completed,Basic Experiment_Dutch_Acc1,9,Part 1 completed,,Accuracy_level_1,,/task/320432/9/asset/green.png,,,,image-keyboard-response,27,79307,0.0-2.1-2.12,,,1,2160,,1,0.95,0.7785,,,test,,
29,1647007503604,11/03/2022 14:05:03,1647007503358,1,11/03/2022 15:05:03,73265,15,task-2i7q,,20300996,BLIND,6021527,Intro Experiment: General explanations,complete,,,computer,Desktop or Laptop,Windows 10,Chrome 99.0.4844.51,1536x864,1536x864,Part 1 completed,Basic Experiment_Dutch_Acc1,9,Part 1 completed,,Accuracy_level_1,489.5,/task/320432/9/asset/glass.jpg,,,j,image-keyboard-response,28,81502,0.0-2.1-0.13,,1,1,2190,,,0.9407407407407407,,,,test,,j
30,1647007505666,11/03/2022 14:05:05,1647007505583,1,11/03/2022 15:05:05,73265,15,task-2i7q,,20300996,BLIND,6021527,Intro Experiment: General explanations,complete,,,computer,Desktop or Laptop,Windows 10,Chrome 99.0.4844.51,1536x864,1536x864,Part 1 completed,Basic Experiment_Dutch_Acc1,9,Part 1 completed,,Accuracy_level_1,,/task/320432/9/asset/purple.png,,,,image-keyboard-response,29,83727,0.0-2.1-2.13,,,1,2220,,1,0.9535714285714285,0.85215,,,test,,
31,1647007507930,11/03/2022 14:05:07,1647007507838,1,11/03/2022 15:05:07,73265,15,task-2i7q,,20300996,BLIND,6021527,Intro Experiment: General explanations,complete,,,computer,Desktop or Laptop,Windows 10,Chrome 99.0.4844.51,1536x864,1536x864,Part 1 completed,Basic Experiment_Dutch_Acc1,9,Part 1 completed,,Accuracy_level_1,505.7000000476837,/task/320432/9/asset/plane.jpg,,,f,image-keyboard-response,30,85981,0.0-2.1-0.14,,1,1,2250,,,0.9448275862068966,,,,test,,f
32,1647007510209,11/03/2022 14:05:10,1647007510122,1,11/03/2022 15:05:10,73265,15,task-2i7q,,20300996,BLIND,6021527,Intro Experiment: General explanations,complete,,,computer,Desktop or Laptop,Windows 10,Chrome 99.0.4844.51,1536x864,1536x864,Part 1 completed,Basic Experiment_Dutch_Acc1,9,Part 1 completed,,Accuracy_level_1,422.10000014305115,/task/320432/9/asset/purple.png,,, ,image-keyboard-response,31,88266,0.0-2.1-2.14,,,1,2280,1,1,0.9566666666666667,0.9278,,,test,, 
33,1647007512524,11/03/2022 14:05:12,1647007512435,1,11/03/2022 15:05:12,73265,15,task-2i7q,,20300996,BLIND,6021527,Intro Experiment: General explanations,complete,,,computer,Desktop or Laptop,Windows 10,Chrome 99.0.4844.51,1536x864,1536x864,Part 1 completed,Basic Experiment_Dutch_Acc1,9,Part 1 completed,,Accuracy_level_1,576,/task/320432/9/asset/elephant.jpg,,,f,image-keyboard-response,32,90579,0.0-2.1-0.15,,1,1,2310,,,0.9483870967741935,,,,test,,f
34,1647007514861,11/03/2022 14:05:14,1647007514781,1,11/03/2022 15:05:14,73265,15,task-2i7q,,20300996,BLIND,6021527,Intro Experiment: General explanations,complete,,,computer,Desktop or Laptop,Windows 10,Chrome 99.0.4844.51,1536x864,1536x864,Part 1 completed,Basic Experiment_Dutch_Acc1,9,Part 1 completed,,Accuracy_level_1,488.69999980926514,/task/320432/9/asset/purple.png,,, ,image-keyboard-response,33,92924,0.0-2.1-2.15,,,1,2340,1,1,0.959375,1.00545,,,test,, 
35,1647007517236,11/03/2022 14:05:17,1647007517158,1,11/03/2022 15:05:17,73265,15,task-2i7q,,20300996,BLIND,6021527,Intro Experiment: General explanations,complete,,,computer,Desktop or Laptop,Windows 10,Chrome 99.0.4844.51,1536x864,1536x864,Part 1 completed,Basic Experiment_Dutch_Acc1,9,Part 1 completed,,Accuracy_level_1,600.7999999523163,/task/320432/9/asset/pear.jpg,,,j,image-keyboard-response,34,95301,0.0-2.2-0.16,,1,1,2370,,,0.9515151515151514,,,,test,,j
36,1647007519660,11/03/2022 14:05:19,1647007519562,1,11/03/2022 15:05:19,73265,15,task-2i7q,,20300996,BLIND,6021527,Intro Experiment: General explanations,complete,,,computer,Desktop or Laptop,Windows 10,Chrome 99.0.4844.51,1536x864,1536x864,Part 1 completed,Basic Experiment_Dutch_Acc1,9,Part 1 completed,,Accuracy_level_1,,/task/320432/9/asset/green.png,,,,image-keyboard-response,35,97706,0.0-2.2-2.16,,,1,2400,,1,0.9617647058823531,1.0851333333333333,,,test,,
37,1647007522088,11/03/2022 14:05:22,1647007521996,1,11/03/2022 15:05:21,73265,15,task-2i7q,,20300996,BLIND,6021527,Intro Experiment: General explanations,complete,,,computer,Desktop or Laptop,Windows 10,Chrome 99.0.4844.51,1536x864,1536x864,Part 1 completed,Basic Experiment_Dutch_Acc1,9,Part 1 completed,,Accuracy_level_1,504.7999999523163,/task/320432/9/asset/pear.jpg,,,j,image-keyboard-response,36,100140,0.0-2.2-0.17,,1,1,2430,,,0.9542857142857144,,,,test,,j
38,1647007524557,11/03/2022 14:05:24,1647007524461,1,11/03/2022 15:05:24,73265,15,task-2i7q,,20300996,BLIND,6021527,Intro Experiment: General explanations,complete,,,computer,Desktop or Laptop,Windows 10,Chrome 99.0.4844.51,1536x864,1536x864,Part 1 completed,Basic Experiment_Dutch_Acc1,9,Part 1 completed,,Accuracy_level_1,,/task/320432/9/asset/pink.png,,,,image-keyboard-response,37,102605,0.0-2.2-2.17,,,1,2460,,1,0.963888888888889,1.1667833333333333,,,test,,
39,1647007527044,11/03/2022 14:05:27,1647007526955,1,11/03/2022 15:05:26,73265,15,task-2i7q,,20300996,BLIND,6021527,Intro Experiment: General explanations,complete,,,computer,Desktop or Laptop,Windows 10,Chrome 99.0.4844.51,1536x864,1536x864,Part 1 completed,Basic Experiment_Dutch_Acc1,9,Part 1 completed,,Accuracy_level_1,980.9000000953674,/task/320432/9/asset/comb.jpg,,,j,image-keyboard-response,38,105098,0.0-2.2-0.18,,1,1,2490,,,0.9567567567567569,,,,test,,j
40,1647007529567,11/03/2022 14:05:29,1647007529479,1,11/03/2022 15:05:29,73265,15,task-2i7q,,20300996,BLIND,6021527,Intro Experiment: General explanations,complete,,,computer,Desktop or Laptop,Windows 10,Chrome 99.0.4844.51,1536x864,1536x864,Part 1 completed,Basic Experiment_Dutch_Acc1,9,Part 1 completed,,Accuracy_level_1,439,/task/320432/9/asset/pink.png,,, ,image-keyboard-response,39,107623,0.0-2.2-2.18,,,1,2520,1,1,0.9657894736842106,1.2504166666666667,,,test,, 
41,1647007532118,11/03/2022 14:05:32,1647007532033,1,11/03/2022 15:05:32,73265,15,task-2i7q,,20300996,BLIND,6021527,Intro Experiment: General explanations,complete,,,computer,Desktop or Laptop,Windows 10,Chrome 99.0.4844.51,1536x864,1536x864,Part 1 completed,Basic Experiment_Dutch_Acc1,9,Part 1 completed,,Accuracy_level_1,684.7999999523163,/task/320432/9/asset/truck.jpg,,,f,image-keyboard-response,40,110176,0.0-2.2-0.19,,1,1,2550,,,0.9589743589743589,,,,test,,f
42,1647007534693,11/03/2022 14:05:34,1647007534617,1,11/03/2022 15:05:34,73265,15,task-2i7q,,20300996,BLIND,6021527,Intro Experiment: General explanations,complete,,,computer,Desktop or Laptop,Windows 10,Chrome 99.0.4844.51,1536x864,1536x864,Part 1 completed,Basic Experiment_Dutch_Acc1,9,Part 1 completed,,Accuracy_level_1,398.2999999523163,/task/320432/9/asset/pink.png,,, ,image-keyboard-response,41,112761,0.0-2.2-2.19,,,1,2580,1,1,0.9675,1.33605,,,test,, 
43,1647007537316,11/03/2022 14:05:37,1647007537231,1,11/03/2022 15:05:37,73265,15,task-2i7q,,20300996,BLIND,6021527,Intro Experiment: General explanations,complete,,,computer,Desktop or Laptop,Windows 10,Chrome 99.0.4844.51,1536x864,1536x864,Part 1 completed,Basic Experiment_Dutch_Acc1,9,Part 1 completed,,Accuracy_level_1,645.9000000953674,/task/320432/9/asset/truck.jpg,,,f,image-keyboard-response,42,115374,0.0-2.2-0.20,,1,1,2610,,,0.9609756097560975,,,,test,,f
44,1647007539955,11/03/2022 14:05:39,1647007539876,1,11/03/2022 15:05:39,73265,15,task-2i7q,,20300996,BLIND,6021527,Intro Experiment: General explanations,complete,,,computer,Desktop or Laptop,Windows 10,Chrome 99.0.4844.51,1536x864,1536x864,Part 1 completed,Basic Experiment_Dutch_Acc1,9,Part 1 completed,,Accuracy_level_1,479.59999990463257,/task/320432/9/asset/pink.png,,, ,image-keyboard-response,43,118019,0.0-2.2-2.20,,,1,2640,1,1,0.9690476190476192,1.4237,,,test,, 
45,1647007542646,11/03/2022 14:05:42,1647007542550,1,11/03/2022 15:05:42,73265,15,task-2i7q,,20300996,BLIND,6021527,Intro Experiment: General explanations,complete,,,computer,Desktop or Laptop,Windows 10,Chrome 99.0.4844.51,1536x864,1536x864,Part 1 completed,Basic Experiment_Dutch_Acc1,9,Part 1 completed,,Accuracy_level_1,770.7000000476837,/task/320432/9/asset/comb.jpg,,,j,image-keyboard-response,44,120694,0.0-2.2-0.21,,1,1,2670,,,0.9627906976744186,,,,test,,j
46,1647007545332,11/03/2022 14:05:45,1647007545255,1,11/03/2022 15:05:45,73265,15,task-2i7q,,20300996,BLIND,6021527,Intro Experiment: General explanations,complete,,,computer,Desktop or Laptop,Windows 10,Chrome 99.0.4844.51,1536x864,1536x864,Part 1 completed,Basic Experiment_Dutch_Acc1,9,Part 1 completed,,Accuracy_level_1,,/task/320432/9/asset/purple.png,,,,image-keyboard-response,45,123399,0.0-2.2-2.21,,,1,2700,,1,0.9704545454545456,1.51335,,,test,,
47,1647007548066,11/03/2022 14:05:48,1647007547989,1,11/03/2022 15:05:47,73265,15,task-2i7q,,20300996,BLIND,6021527,Intro Experiment: General explanations,complete,,,computer,Desktop or Laptop,Windows 10,Chrome 99.0.4844.51,1536x864,1536x864,Part 1 completed,Basic Experiment_Dutch_Acc1,9,Part 1 completed,,Accuracy_level_1,677.6999998092651,/task/320432/9/asset/truck.jpg,,,f,image-keyboard-response,46,126133,0.0-2.2-0.22,,1,1,2730,,,0.9644444444444445,,,,test,,f
48,1647007550846,11/03/2022 14:05:50,1647007550754,1,11/03/2022 15:05:50,73265,15,task-2i7q,,20300996,BLIND,6021527,Intro Experiment: General explanations,complete,,,computer,Desktop or Laptop,Windows 10,Chrome 99.0.4844.51,1536x864,1536x864,Part 1 completed,Basic Experiment_Dutch_Acc1,9,Part 1 completed,,Accuracy_level_1,,/task/320432/9/asset/red.png,,,,image-keyboard-response,47,128897,0.0-2.2-2.22,,,1,2760,,1,0.9717391304347827,1.605,,,test,,
49,1647007553635,11/03/2022 14:05:53,1647007553548,1,11/03/2022 15:05:53,73265,15,task-2i7q,,20300996,BLIND,6021527,Intro Experiment: General explanations,complete,,,computer,Desktop or Laptop,Windows 10,Chrome 99.0.4844.51,1536x864,1536x864,Part 1 completed,Basic Experiment_Dutch_Acc1,9,Part 1 completed,,Accuracy_level_1,656.4000000953674,/task/320432/9/asset/pear.jpg,,,j,image-keyboard-response,48,131691,0.0-2.2-0.23,,1,1,2790,,,0.9659574468085108,,,,test,,j
50,1647007556450,11/03/2022 14:05:56,1647007556372,1,11/03/2022 15:05:56,73265,15,task-2i7q,,20300996,BLIND,6021527,Intro Experiment: General explanations,complete,,,computer,Desktop or Laptop,Windows 10,Chrome 99.0.4844.51,1536x864,1536x864,Part 1 completed,Basic Experiment_Dutch_Acc1,9,Part 1 completed,,Accuracy_level_1,,/task/320432/9/asset/pink.png,,,,image-keyboard-response,49,134516,0.0-2.2-2.23,,,1,2820,,1,0.9729166666666668,1.6986333333333334,,,test,,
51,1647007559316,11/03/2022 14:05:59,1647007559227,1,11/03/2022 15:05:59,73265,15,task-2i7q,,20300996,BLIND,6021527,Intro Experiment: General explanations,complete,,,computer,Desktop or Laptop,Windows 10,Chrome 99.0.4844.51,1536x864,1536x864,Part 1 completed,Basic Experiment_Dutch_Acc1,9,Part 1 completed,,Accuracy_level_1,558.7999999523163,/task/320432/9/asset/elephant.jpg,,,f,image-keyboard-response,50,137371,0.0-2.3-0.24,,1,1,2850,,,0.9673469387755101,,,,test,,f
52,1647007562187,11/03/2022 14:06:02,1647007562112,1,11/03/2022 15:06:02,73265,15,task-2i7q,,20300996,BLIND,6021527,Intro Experiment: General explanations,complete,,,computer,Desktop or Laptop,Windows 10,Chrome 99.0.4844.51,1536x864,1536x864,Part 1 completed,Basic Experiment_Dutch_Acc1,9,Part 1 completed,,Accuracy_level_1,,/task/320432/9/asset/red.png,,,,image-keyboard-response,51,140256,0.0-2.3-2.24,,,1,2880,,1,0.9740000000000001,1.7943,,,test,,
53,1647007565112,11/03/2022 14:06:05,1647007565030,1,11/03/2022 15:06:05,73265,15,task-2i7q,,20300996,BLIND,6021527,Intro Experiment: General explanations,complete,,,computer,Desktop or Laptop,Windows 10,Chrome 99.0.4844.51,1536x864,1536x864,Part 1 completed,Basic Experiment_Dutch_Acc1,9,Part 1 completed,,Accuracy_level_1,631.2999999523163,/task/320432/9/asset/glass.jpg,,,j,image-keyboard-response,52,143174,0.0-2.3-0.25,,1,1,2910,,,0.9686274509803922,,,,test,,j
54,1647007568061,11/03/2022 14:06:08,1647007567974,1,11/03/2022 15:06:07,73265,15,task-2i7q,,20300996,BLIND,6021527,Intro Experiment: General explanations,complete,,,computer,Desktop or Laptop,Windows 10,Chrome 99.0.4844.51,1536x864,1536x864,Part 1 completed,Basic Experiment_Dutch_Acc1,9,Part 1 completed,,Accuracy_level_1,704.6999998092651,/task/320432/9/asset/red.png,,, ,image-keyboard-response,53,146117,0.0-2.3-2.25,,,1,2940,1,1,0.9750000000000001,1.892,,,test,, 
55,1647007571107,11/03/2022 14:06:11,1647007570947,1,11/03/2022 15:06:10,73265,15,task-2i7q,,20300996,BLIND,6021527,Intro Experiment: General explanations,complete,,,computer,Desktop or Laptop,Windows 10,Chrome 99.0.4844.51,1536x864,1536x864,Part 1 completed,Basic Experiment_Dutch_Acc1,9,Part 1 completed,,Accuracy_level_1,881.5,/task/320432/9/asset/key.jpg,,,j,image-keyboard-response,54,149091,0.0-2.3-0.26,,1,1,2970,,,0.969811320754717,,,,test,,j
56,1647007574031,11/03/2022 14:06:14,1647007573955,1,11/03/2022 15:06:13,73265,15,task-2i7q,,20300996,BLIND,6021527,Intro Experiment: General explanations,complete,,,computer,Desktop or Laptop,Windows 10,Chrome 99.0.4844.51,1536x864,1536x864,Part 1 completed,Basic Experiment_Dutch_Acc1,9,Part 1 completed,,Accuracy_level_1,374.2999999523163,/task/320432/9/asset/red.png,,, ,image-keyboard-response,55,152099,0.0-2.3-2.26,,,1,3000,1,1,0.9759259259259259,1.9916833333333333,,,test,, 
57,1647007577072,11/03/2022 14:06:17,1647007576990,1,11/03/2022 15:06:16,73265,15,task-2i7q,,20300996,BLIND,6021527,Intro Experiment: General explanations,complete,,,computer,Desktop or Laptop,Windows 10,Chrome 99.0.4844.51,1536x864,1536x864,Part 1 completed,Basic Experiment_Dutch_Acc1,9,Part 1 completed,,Accuracy_level_1,633.7999999523163,/task/320432/9/asset/elephant.jpg,,,f,image-keyboard-response,56,155134,0.0-2.3-0.27,,1,1,3030,,,0.9709090909090908,,,,test,,f
58,1647007580134,11/03/2022 14:06:20,1647007580055,1,11/03/2022 15:06:20,73265,15,task-2i7q,,20300996,BLIND,6021527,Intro Experiment: General explanations,complete,,,computer,Desktop or Laptop,Windows 10,Chrome 99.0.4844.51,1536x864,1536x864,Part 1 completed,Basic Experiment_Dutch_Acc1,9,Part 1 completed,,Accuracy_level_1,,/task/320432/9/asset/purple.png,,,,image-keyboard-response,57,158199,0.0-2.3-2.27,,,1,3060,,1,0.9767857142857144,2.09335,,,test,,
59,1647007583237,11/03/2022 14:06:23,1647007583150,1,11/03/2022 15:06:23,73265,15,task-2i7q,,20300996,BLIND,6021527,Intro Experiment: General explanations,complete,,,computer,Desktop or Laptop,Windows 10,Chrome 99.0.4844.51,1536x864,1536x864,Part 1 completed,Basic Experiment_Dutch_Acc1,9,Part 1 completed,,Accuracy_level_1,532.1999998092651,/task/320432/9/asset/elephant.jpg,,,f,image-keyboard-response,58,161294,0.0-2.3-0.28,,1,1,3090,,,0.9719298245614036,,,,test,,f
60,1647007586352,11/03/2022 14:06:26,1647007586275,1,11/03/2022 15:06:26,73265,15,task-2i7q,,20300996,BLIND,6021527,Intro Experiment: General explanations,complete,,,computer,Desktop or Laptop,Windows 10,Chrome 99.0.4844.51,1536x864,1536x864,Part 1 completed,Basic Experiment_Dutch_Acc1,9,Part 1 completed,,Accuracy_level_1,568.5,/task/320432/9/asset/purple.png,,, ,image-keyboard-response,59,164419,0.0-2.3-2.28,,,1,3120,1,1,0.9775862068965517,2.197016666666667,,,test,, 
61,1647007589510,11/03/2022 14:06:29,1647007589429,1,11/03/2022 15:06:29,73265,15,task-2i7q,,20300996,BLIND,6021527,Intro Experiment: General explanations,complete,,,computer,Desktop or Laptop,Windows 10,Chrome 99.0.4844.51,1536x864,1536x864,Part 1 completed,Basic Experiment_Dutch_Acc1,9,Part 1 completed,,Accuracy_level_1,546.6999998092651,/task/320432/9/asset/elephant.jpg,,,f,image-keyboard-response,60,167573,0.0-2.3-0.29,,1,1,3150,,,0.9728813559322034,,,,test,,f
62,1647007592698,11/03/2022 14:06:32,1647007592614,1,11/03/2022 15:06:32,73265,15,task-2i7q,,20300996,BLIND,6021527,Intro Experiment: General explanations,complete,,,computer,Desktop or Laptop,Windows 10,Chrome 99.0.4844.51,1536x864,1536x864,Part 1 completed,Basic Experiment_Dutch_Acc1,9,Part 1 completed,,Accuracy_level_1,735.7000000476837,/task/320432/9/asset/purple.png,,, ,image-keyboard-response,61,170758,0.0-2.3-2.29,,,1,3180,1,1,0.9783333333333334,2.3026666666666666,,,test,, 
63,1647007595908,11/03/2022 14:06:35,1647007595828,1,11/03/2022 15:06:35,73265,15,task-2i7q,,20300996,BLIND,6021527,Intro Experiment: General explanations,complete,,,computer,Desktop or Laptop,Windows 10,Chrome 99.0.4844.51,1536x864,1536x864,Part 1 completed,Basic Experiment_Dutch_Acc1,9,Part 1 completed,,Accuracy_level_1,545.1999998092651,/task/320432/9/asset/plane.jpg,,,f,image-keyboard-response,62,173972,0.0-2.3-0.30,,1,1,3210,,,0.9737704918032788,,,,test,,f
64,1647007599149,11/03/2022 14:06:39,1647007599074,1,11/03/2022 15:06:39,73265,15,task-2i7q,,20300996,BLIND,6021527,Intro Experiment: General explanations,complete,,,computer,Desktop or Laptop,Windows 10,Chrome 99.0.4844.51,1536x864,1536x864,Part 1 completed,Basic Experiment_Dutch_Acc1,9,Part 1 completed,,Accuracy_level_1,526.5,/task/320432/9/asset/purple.png,,, ,image-keyboard-response,63,177217,0.0-2.3-2.30,,,1,3240,1,1,0.9790322580645162,2.4103333333333334,,,test,, 
65,1647007602432,11/03/2022 14:06:42,1647007602346,1,11/03/2022 15:06:42,73265,15,task-2i7q,,20300996,BLIND,6021527,Intro Experiment: General explanations,complete,,,computer,Desktop or Laptop,Windows 10,Chrome 99.0.4844.51,1536x864,1536x864,Part 1 completed,Basic Experiment_Dutch_Acc1,9,Part 1 completed,,Accuracy_level_1,582.7999999523163,/task/320432/9/asset/pear.jpg,,,j,image-keyboard-response,64,180490,0.0-2.3-0.31,,1,1,3270,,,0.9746031746031746,,,,test,,j
66,1647007605735,11/03/2022 14:06:45,1647007605651,1,11/03/2022 15:06:45,73265,15,task-2i7q,,20300996,BLIND,6021527,Intro Experiment: General explanations,complete,,,computer,Desktop or Laptop,Windows 10,Chrome 99.0.4844.51,1536x864,1536x864,Part 1 completed,Basic Experiment_Dutch_Acc1,9,Part 1 completed,,Accuracy_level_1,528.8000001907349,/task/320432/9/asset/purple.png,,, ,image-keyboard-response,65,183795,0.0-2.3-2.31,,,1,3300,1,1,0.9796874999999999,2.51995,,,test,, 
67,1647007609072,11/03/2022 14:06:49,1647007608985,1,11/03/2022 15:06:48,73265,15,task-2i7q,,20300996,BLIND,6021527,Intro Experiment: General explanations,complete,,,computer,Desktop or Laptop,Windows 10,Chrome 99.0.4844.51,1536x864,1536x864,Part 1 completed,Basic Experiment_Dutch_Acc1,9,Part 1 completed,,Accuracy_level_1,616.1000001430511,/task/320432/9/asset/plane.jpg,,,f,image-keyboard-response,66,187129,0.0-2.4-0.32,,1,1,3330,,,0.9753846153846154,,,,test,,f
68,1647007612431,11/03/2022 14:06:52,1647007612349,1,11/03/2022 15:06:52,73265,15,task-2i7q,,20300996,BLIND,6021527,Intro Experiment: General explanations,complete,,,computer,Desktop or Laptop,Windows 10,Chrome 99.0.4844.51,1536x864,1536x864,Part 1 completed,Basic Experiment_Dutch_Acc1,9,Part 1 completed,,Accuracy_level_1,,/task/320432/9/asset/black.png,,,,image-keyboard-response,67,190492,0.0-2.4-2.32,,,1,3360,,1,0.9803030303030303,2.6315833333333334,,,test,,
69,1647007615828,11/03/2022 14:06:55,1647007615742,1,11/03/2022 15:06:55,73265,15,task-2i7q,,20300996,BLIND,6021527,Intro Experiment: General explanations,complete,,,computer,Desktop or Laptop,Windows 10,Chrome 99.0.4844.51,1536x864,1536x864,Part 1 completed,Basic Experiment_Dutch_Acc1,9,Part 1 completed,,Accuracy_level_1,637.3999998569489,/task/320432/9/asset/plane.jpg,,,f,image-keyboard-response,68,193886,0.0-2.4-0.33,,1,1,3390,,,0.9761194029850747,,,,test,,f
70,1647007619250,11/03/2022 14:06:59,1647007619166,1,11/03/2022 15:06:59,73265,15,task-2i7q,,20300996,BLIND,6021527,Intro Experiment: General explanations,complete,,,computer,Desktop or Laptop,Windows 10,Chrome 99.0.4844.51,1536x864,1536x864,Part 1 completed,Basic Experiment_Dutch_Acc1,9,Part 1 completed,,Accuracy_level_1,556.8000001907349,/task/320432/9/asset/black.png,,, ,image-keyboard-response,69,197309,0.0-2.4-2.33,,,1,3420,1,1,0.9808823529411765,2.7452,,,test,, 
71,1647007622698,11/03/2022 14:07:02,1647007622619,1,11/03/2022 15:07:02,73265,15,task-2i7q,,20300996,BLIND,6021527,Intro Experiment: General explanations,complete,,,computer,Desktop or Laptop,Windows 10,Chrome 99.0.4844.51,1536x864,1536x864,Part 1 completed,Basic Experiment_Dutch_Acc1,9,Part 1 completed,,Accuracy_level_1,602.4000000953674,/task/320432/9/asset/plane.jpg,,,f,image-keyboard-response,70,200763,0.0-2.4-0.34,,1,1,3450,,,0.9768115942028986,,,,test,,f
72,1647007626195,11/03/2022 14:07:06,1647007626117,1,11/03/2022 15:07:06,73265,15,task-2i7q,,20300996,BLIND,6021527,Intro Experiment: General explanations,complete,,,computer,Desktop or Laptop,Windows 10,Chrome 99.0.4844.51,1536x864,1536x864,Part 1 completed,Basic Experiment_Dutch_Acc1,9,Part 1 completed,,Accuracy_level_1,451.89999985694885,/task/320432/9/asset/black.png,,, ,image-keyboard-response,71,204260,0.0-2.4-2.34,,,1,3480,1,1,0.9814285714285714,2.86105,,,test,, 
73,1647007629716,11/03/2022 14:07:09,1647007629631,1,11/03/2022 15:07:09,73265,15,task-2i7q,,20300996,BLIND,6021527,Intro Experiment: General explanations,complete,,,computer,Desktop or Laptop,Windows 10,Chrome 99.0.4844.51,1536x864,1536x864,Part 1 completed,Basic Experiment_Dutch_Acc1,9,Part 1 completed,,Accuracy_level_1,536,/task/320432/9/asset/plane.jpg,,,f,image-keyboard-response,72,207775,0.0-2.4-0.35,,1,1,3510,,,0.9774647887323944,,,,test,,f
74,1647007633254,11/03/2022 14:07:13,1647007633176,1,11/03/2022 15:07:13,73265,15,task-2i7q,,20300996,BLIND,6021527,Intro Experiment: General explanations,complete,,,computer,Desktop or Laptop,Windows 10,Chrome 99.0.4844.51,1536x864,1536x864,Part 1 completed,Basic Experiment_Dutch_Acc1,9,Part 1 completed,,Accuracy_level_1,543.6000001430511,/task/320432/9/asset/black.png,,, ,image-keyboard-response,73,211320,0.0-2.4-2.35,,,1,3540,1,1,0.9819444444444445,2.9787,,,test,, 
75,1647007637354,11/03/2022 14:07:17,1647007636752,1,11/03/2022 15:07:16,73265,15,task-2i7q,,20300996,BLIND,6021527,Intro Experiment: General explanations,complete,,,computer,Desktop or Laptop,Windows 10,Chrome 99.0.4844.51,1536x864,1536x864,Part 1 completed,Basic Experiment_Dutch_Acc1,9,Part 1 completed,,Accuracy_level_1,848.2000000476837,/task/320432/9/asset/truck.jpg,,,f,image-keyboard-response,74,214895,0.0-2.4-0.36,,1,1,3570,,,0.978082191780822,,,,test,,f
76,1647007640445,11/03/2022 14:07:20,1647007640359,1,11/03/2022 15:07:20,73265,15,task-2i7q,,20300996,BLIND,6021527,Intro Experiment: General explanations,complete,,,computer,Desktop or Laptop,Windows 10,Chrome 99.0.4844.51,1536x864,1536x864,Part 1 completed,Basic Experiment_Dutch_Acc1,9,Part 1 completed,,Accuracy_level_1,762.0999999046326,/task/320432/9/asset/black.png,,, ,image-keyboard-response,75,218503,0.0-2.4-2.36,,,1,3600,1,1,0.9824324324324323,3.0984166666666666,,,test,, 
77,1647007644074,11/03/2022 14:07:24,1647007643993,1,11/03/2022 15:07:23,73265,15,task-2i7q,,20300996,BLIND,6021527,Intro Experiment: General explanations,complete,,,computer,Desktop or Laptop,Windows 10,Chrome 99.0.4844.51,1536x864,1536x864,Part 1 completed,Basic Experiment_Dutch_Acc1,9,Part 1 completed,,Accuracy_level_1,596.2999999523163,/task/320432/9/asset/elephant.jpg,,,f,image-keyboard-response,76,222136,0.0-2.4-0.37,,1,1,3630,,,0.9786666666666668,,,,test,,f
78,1647007647739,11/03/2022 14:07:27,1647007647657,1,11/03/2022 15:07:27,73265,15,task-2i7q,,20300996,BLIND,6021527,Intro Experiment: General explanations,complete,,,computer,Desktop or Laptop,Windows 10,Chrome 99.0.4844.51,1536x864,1536x864,Part 1 completed,Basic Experiment_Dutch_Acc1,9,Part 1 completed,,Accuracy_level_1,,/task/320432/9/asset/purple.png,,,,image-keyboard-response,77,225800,0.0-2.4-2.37,,,1,3660,,1,0.9828947368421053,3.22005,,,test,,
79,1647007651431,11/03/2022 14:07:31,1647007651351,1,11/03/2022 15:07:31,73265,15,task-2i7q,,20300996,BLIND,6021527,Intro Experiment: General explanations,complete,,,computer,Desktop or Laptop,Windows 10,Chrome 99.0.4844.51,1536x864,1536x864,Part 1 completed,Basic Experiment_Dutch_Acc1,9,Part 1 completed,,Accuracy_level_1,658.2000000476837,/task/320432/9/asset/comb.jpg,,,j,image-keyboard-response,78,229494,0.0-2.4-0.38,,1,1,3690,,,0.9792207792207793,,,,test,,j
80,1647007655172,11/03/2022 14:07:35,1647007655079,1,11/03/2022 15:07:35,73265,15,task-2i7q,,20300996,BLIND,6021527,Intro Experiment: General explanations,complete,,,computer,Desktop or Laptop,Windows 10,Chrome 99.0.4844.51,1536x864,1536x864,Part 1 completed,Basic Experiment_Dutch_Acc1,9,Part 1 completed,,Accuracy_level_1,,/task/320432/9/asset/yellow.png,,,,image-keyboard-response,79,233223,0.0-2.4-2.38,,,1,3720,,1,0.9833333333333334,3.34375,,,test,,
81,1647007658910,11/03/2022 14:07:38,1647007658834,1,11/03/2022 15:07:38,73265,15,task-2i7q,,20300996,BLIND,6021527,Intro Experiment: General explanations,complete,,,computer,Desktop or Laptop,Windows 10,Chrome 99.0.4844.51,1536x864,1536x864,Part 1 completed,Basic Experiment_Dutch_Acc1,9,Part 1 completed,,Accuracy_level_1,625.5,/task/320432/9/asset/elephant.jpg,,,f,image-keyboard-response,80,236978,0.0-2.4-0.39,,1,1,3750,,,0.9797468354430381,,,,test,,f
82,1647007662717,11/03/2022 14:07:42,1647007662619,1,11/03/2022 15:07:42,73265,15,task-2i7q,,20300996,BLIND,6021527,Intro Experiment: General explanations,complete,,,computer,Desktop or Laptop,Windows 10,Chrome 99.0.4844.51,1536x864,1536x864,Part 1 completed,Basic Experiment_Dutch_Acc1,9,Part 1 completed,,Accuracy_level_1,,/task/320432/9/asset/purple.png,,,,image-keyboard-response,81,240763,0.0-2.4-2.39,,,1,3780,,1,0.98375,3.4694166666666666,,,test,,
83,1647007666523,11/03/2022 14:07:46,1647007666435,1,11/03/2022 15:07:46,73265,15,task-2i7q,,20300996,BLIND,6021527,Intro Experiment: General explanations,complete,,,computer,Desktop or Laptop,Windows 10,Chrome 99.0.4844.51,1536x864,1536x864,Part 1 completed,Basic Experiment_Dutch_Acc1,9,Part 1 completed,,Accuracy_level_1,647.1000001430511,/task/320432/9/asset/truck.jpg,,,f,image-keyboard-response,82,244579,0.0-2.5-0.40,,1,1,3810,,,0.980246913580247,,,,test,,f
84,1647007670364,11/03/2022 14:07:50,1647007670279,1,11/03/2022 15:07:50,73265,15,task-2i7q,,20300996,BLIND,6021527,Intro Experiment: General explanations,complete,,,computer,Desktop or Laptop,Windows 10,Chrome 99.0.4844.51,1536x864,1536x864,Part 1 completed,Basic Experiment_Dutch_Acc1,9,Part 1 completed,,Accuracy_level_1,1108.9000000953674,/task/320432/9/asset/purple.png,,, ,image-keyboard-response,83,248423,0.0-2.5-2.40,,,1,3840,1,1,0.9841463414634146,3.5970833333333334,,,test,, 
85,1647007674244,11/03/2022 14:07:54,1647007674155,1,11/03/2022 15:07:54,73265,15,task-2i7q,,20300996,BLIND,6021527,Intro Experiment: General explanations,complete,,,computer,Desktop or Laptop,Windows 10,Chrome 99.0.4844.51,1536x864,1536x864,Part 1 completed,Basic Experiment_Dutch_Acc1,9,Part 1 completed,,Accuracy_level_1,598.7999999523163,/task/320432/9/asset/plane.jpg,,,f,image-keyboard-response,84,252297,0.0-2.5-0.41,,1,1,3870,,,0.9807228915662651,,,,test,,f
86,1647007678165,11/03/2022 14:07:58,1647007678062,1,11/03/2022 15:07:58,73265,15,task-2i7q,,20300996,BLIND,6021527,Intro Experiment: General explanations,complete,,,computer,Desktop or Laptop,Windows 10,Chrome 99.0.4844.51,1536x864,1536x864,Part 1 completed,Basic Experiment_Dutch_Acc1,9,Part 1 completed,,Accuracy_level_1,424.10000014305115,/task/320432/9/asset/purple.png,,, ,image-keyboard-response,85,256206,0.0-2.5-2.41,,,1,3900,1,1,0.9845238095238094,3.7268,,,test,, 
87,1647007682086,11/03/2022 14:08:02,1647007681996,1,11/03/2022 15:08:01,73265,15,task-2i7q,,20300996,BLIND,6021527,Intro Experiment: General explanations,complete,,,computer,Desktop or Laptop,Windows 10,Chrome 99.0.4844.51,1536x864,1536x864,Part 1 completed,Basic Experiment_Dutch_Acc1,9,Part 1 completed,,Accuracy_level_1,749.9000000953674,/task/320432/9/asset/pear.jpg,,,j,image-keyboard-response,86,260139,0.0-2.5-0.42,,1,1,3930,,,0.9811764705882353,,,,test,,j
88,1647007686057,11/03/2022 14:08:06,1647007685962,1,11/03/2022 15:08:05,73265,15,task-2i7q,,20300996,BLIND,6021527,Intro Experiment: General explanations,complete,,,computer,Desktop or Laptop,Windows 10,Chrome 99.0.4844.51,1536x864,1536x864,Part 1 completed,Basic Experiment_Dutch_Acc1,9,Part 1 completed,,Accuracy_level_1,671.2999999523163,/task/320432/9/asset/purple.png,,, ,image-keyboard-response,87,264105,0.0-2.5-2.42,,,1,3960,1,1,0.9848837209302326,3.8584666666666667,,,test,, 
89,1647007690042,11/03/2022 14:08:10,1647007689956,1,11/03/2022 15:08:09,73265,15,task-2i7q,,20300996,BLIND,6021527,Intro Experiment: General explanations,complete,,,computer,Desktop or Laptop,Windows 10,Chrome 99.0.4844.51,1536x864,1536x864,Part 1 completed,Basic Experiment_Dutch_Acc1,9,Part 1 completed,,Accuracy_level_1,582.8999998569489,/task/320432/9/asset/plane.jpg,,,f,image-keyboard-response,88,268100,0.0-2.5-0.43,,1,1,3990,,,0.981609195402299,,,,test,,f
90,1647007694075,11/03/2022 14:08:14,1647007693983,1,11/03/2022 15:08:13,73265,15,task-2i7q,,20300996,BLIND,6021527,Intro Experiment: General explanations,complete,,,computer,Desktop or Laptop,Windows 10,Chrome 99.0.4844.51,1536x864,1536x864,Part 1 completed,Basic Experiment_Dutch_Acc1,9,Part 1 completed,,Accuracy_level_1,405.2999999523163,/task/320432/9/asset/purple.png,,, ,image-keyboard-response,89,272126,0.0-2.5-2.43,,,1,4020,1,1,0.9852272727272727,3.99215,,,test,, 
91,1647007698127,11/03/2022 14:08:18,1647007698037,1,11/03/2022 15:08:18,73265,15,task-2i7q,,20300996,BLIND,6021527,Intro Experiment: General explanations,complete,,,computer,Desktop or Laptop,Windows 10,Chrome 99.0.4844.51,1536x864,1536x864,Part 1 completed,Basic Experiment_Dutch_Acc1,9,Part 1 completed,,Accuracy_level_1,783.1999998092651,/task/320432/9/asset/comb.jpg,,,j,image-keyboard-response,90,276180,0.0-2.5-0.44,,1,1,4050,,,0.9820224719101124,,,,test,,j
92,1647007702215,11/03/2022 14:08:22,1647007702121,1,11/03/2022 15:08:22,73265,15,task-2i7q,,20300996,BLIND,6021527,Intro Experiment: General explanations,complete,,,computer,Desktop or Laptop,Windows 10,Chrome 99.0.4844.51,1536x864,1536x864,Part 1 completed,Basic Experiment_Dutch_Acc1,9,Part 1 completed,,Accuracy_level_1,608.2000000476837,/task/320432/9/asset/purple.png,,, ,image-keyboard-response,91,280265,0.0-2.5-2.44,,,1,4080,1,1,0.9855555555555556,4.127783333333333,,,test,, 
93,1647007706318,11/03/2022 14:08:26,1647007706235,1,11/03/2022 15:08:26,73265,15,task-2i7q,,20300996,BLIND,6021527,Intro Experiment: General explanations,complete,,,computer,Desktop or Laptop,Windows 10,Chrome 99.0.4844.51,1536x864,1536x864,Part 1 completed,Basic Experiment_Dutch_Acc1,9,Part 1 completed,,Accuracy_level_1,595.8999998569489,/task/320432/9/asset/truck.jpg,,,f,image-keyboard-response,92,284378,0.0-2.5-0.45,,1,1,4110,,,0.9824175824175825,,,,test,,f
94,1647007710468,11/03/2022 14:08:30,1647007710379,1,11/03/2022 15:08:30,73265,15,task-2i7q,,20300996,BLIND,6021527,Intro Experiment: General explanations,complete,,,computer,Desktop or Laptop,Windows 10,Chrome 99.0.4844.51,1536x864,1536x864,Part 1 completed,Basic Experiment_Dutch_Acc1,9,Part 1 completed,,Accuracy_level_1,,/task/320432/9/asset/blue.png,,,,image-keyboard-response,93,288522,0.0-2.5-2.45,,,1,4140,,1,0.9858695652173913,4.265416666666667,,,test,,
95,1647007714645,11/03/2022 14:08:34,1647007714552,1,11/03/2022 15:08:34,73265,15,task-2i7q,,20300996,BLIND,6021527,Intro Experiment: General explanations,complete,,,computer,Desktop or Laptop,Windows 10,Chrome 99.0.4844.51,1536x864,1536x864,Part 1 completed,Basic Experiment_Dutch_Acc1,9,Part 1 completed,,Accuracy_level_1,616.7999999523163,/task/320432/9/asset/key.jpg,,,j,image-keyboard-response,94,292696,0.0-2.5-0.46,,1,1,4170,,,0.9827956989247313,,,,test,,j
96,1647007718838,11/03/2022 14:08:38,1647007718764,1,11/03/2022 15:08:38,73265,15,task-2i7q,,20300996,BLIND,6021527,Intro Experiment: General explanations,complete,,,computer,Desktop or Laptop,Windows 10,Chrome 99.0.4844.51,1536x864,1536x864,Part 1 completed,Basic Experiment_Dutch_Acc1,9,Part 1 completed,,Accuracy_level_1,1408.7000000476837,/task/320432/9/asset/blue.png,,, ,image-keyboard-response,95,296908,0.0-2.5-2.46,,,1,4200,1,1,0.9861702127659573,4.405166666666666,,,test,, 
97,1647007723217,11/03/2022 14:08:43,1647007723000,1,11/03/2022 15:08:43,73265,15,task-2i7q,,20300996,BLIND,6021527,Intro Experiment: General explanations,complete,,,computer,Desktop or Laptop,Windows 10,Chrome 99.0.4844.51,1536x864,1536x864,Part 1 completed,Basic Experiment_Dutch_Acc1,9,Part 1 completed,,Accuracy_level_1,620.7000000476837,/task/320432/9/asset/glass.jpg,,,j,image-keyboard-response,96,301142,0.0-2.5-0.47,,1,1,4230,,,0.9831578947368421,,,,test,,j
98,1647007727347,11/03/2022 14:08:47,1647007727268,1,11/03/2022 15:08:47,73265,15,task-2i7q,,20300996,BLIND,6021527,Intro Experiment: General explanations,complete,,,computer,Desktop or Laptop,Windows 10,Chrome 99.0.4844.51,1536x864,1536x864,Part 1 completed,Basic Experiment_Dutch_Acc1,9,Part 1 completed,,Accuracy_level_1,587.1000001430511,/task/320432/9/asset/blue.png,,, ,image-keyboard-response,97,305411,0.0-2.5-2.47,,,1,4260,1,1,0.9864583333333333,4.5469,,,test,, 
99,1647007731641,11/03/2022 14:08:51,1647007731562,1,11/03/2022 15:08:51,73265,15,task-2i7q,,20300996,BLIND,6021527,Intro Experiment: General explanations,complete,,,computer,Desktop or Laptop,Windows 10,Chrome 99.0.4844.51,1536x864,1536x864,Part 1 completed,Basic Experiment_Dutch_Acc1,9,Part 1 completed,,Accuracy_level_1,637.2999999523163,/task/320432/9/asset/comb.jpg,,,j,image-keyboard-response,98,309706,0.0-2.6-0.48,,1,1,4290,,,0.9835051546391753,,,,test,,j
100,1647007735971,11/03/2022 14:08:55,1647007735888,1,11/03/2022 15:08:55,73265,15,task-2i7q,,20300996,BLIND,6021527,Intro Experiment: General explanations,complete,,,computer,Desktop or Laptop,Windows 10,Chrome 99.0.4844.51,1536x864,1536x864,Part 1 completed,Basic Experiment_Dutch_Acc1,9,Part 1 completed,,Accuracy_level_1,569.5,/task/320432/9/asset/blue.png,,, ,image-keyboard-response,99,314031,0.0-2.6-2.48,,,1,4320,1,1,0.9867346938775509,4.690566666666666,,,test,, 
101,1647007740321,11/03/2022 14:09:00,1647007740241,1,11/03/2022 15:09:00,73265,15,task-2i7q,,20300996,BLIND,6021527,Intro Experiment: General explanations,complete,,,computer,Desktop or Laptop,Windows 10,Chrome 99.0.4844.51,1536x864,1536x864,Part 1 completed,Basic Experiment_Dutch_Acc1,9,Part 1 completed,,Accuracy_level_1,740.4000000953674,/task/320432/9/asset/key.jpg,,,j,image-keyboard-response,100,318384,0.0-2.6-0.49,,1,1,4350,,,0.9838383838383838,,,,test,,j
102,1647007744706,11/03/2022 14:09:04,1647007744626,1,11/03/2022 15:09:04,73265,15,task-2i7q,,20300996,BLIND,6021527,Intro Experiment: General explanations,complete,,,computer,Desktop or Laptop,Windows 10,Chrome 99.0.4844.51,1536x864,1536x864,Part 1 completed,Basic Experiment_Dutch_Acc1,9,Part 1 completed,,Accuracy_level_1,,/task/320432/9/asset/pink.png,,,,image-keyboard-response,101,322769,0.0-2.6-2.49,,,1,4380,,1,0.987,4.8362,,,test,,
103,1647007749118,11/03/2022 14:09:09,1647007749040,1,11/03/2022 15:09:09,73265,15,task-2i7q,,20300996,BLIND,6021527,Intro Experiment: General explanations,complete,,,computer,Desktop or Laptop,Windows 10,Chrome 99.0.4844.51,1536x864,1536x864,Part 1 completed,Basic Experiment_Dutch_Acc1,9,Part 1 completed,,Accuracy_level_1,556.3999998569489,/task/320432/9/asset/comb.jpg,,,j,image-keyboard-response,102,327184,0.0-2.6-0.50,,1,1,4410,,,0.9841584158415843,,,,test,,j
104,1647007753560,11/03/2022 14:09:13,1647007753485,1,11/03/2022 15:09:13,73265,15,task-2i7q,,20300996,BLIND,6021527,Intro Experiment: General explanations,complete,,,computer,Desktop or Laptop,Windows 10,Chrome 99.0.4844.51,1536x864,1536x864,Part 1 completed,Basic Experiment_Dutch_Acc1,9,Part 1 completed,,Accuracy_level_1,,/task/320432/9/asset/black.png,,,,image-keyboard-response,103,331628,0.0-2.6-2.50,,,1,4440,,1,0.9872549019607844,4.98385,,,test,,
105,1647007758035,11/03/2022 14:09:18,1647007757958,1,11/03/2022 15:09:17,73265,15,task-2i7q,,20300996,BLIND,6021527,Intro Experiment: General explanations,complete,,,computer,Desktop or Laptop,Windows 10,Chrome 99.0.4844.51,1536x864,1536x864,Part 1 completed,Basic Experiment_Dutch_Acc1,9,Part 1 completed,,Accuracy_level_1,557.5,/task/320432/9/asset/comb.jpg,,,j,image-keyboard-response,104,336102,0.0-2.6-0.51,,1,1,4470,,,0.9844660194174758,,,,test,,j
106,1647007762546,11/03/2022 14:09:22,1647007762465,1,11/03/2022 15:09:22,73265,15,task-2i7q,,20300996,BLIND,6021527,Intro Experiment: General explanations,complete,,,computer,Desktop or Laptop,Windows 10,Chrome 99.0.4844.51,1536x864,1536x864,Part 1 completed,Basic Experiment_Dutch_Acc1,9,Part 1 completed,,Accuracy_level_1,358.5,/task/320432/9/asset/black.png,,, ,image-keyboard-response,105,340608,0.0-2.6-2.51,,,1,4500,1,1,0.9874999999999999,5.1335,,,test,, 
107,1647007767090,11/03/2022 14:09:27,1647007766998,1,11/03/2022 15:09:26,73265,15,task-2i7q,,20300996,BLIND,6021527,Intro Experiment: General explanations,complete,,,computer,Desktop or Laptop,Windows 10,Chrome 99.0.4844.51,1536x864,1536x864,Part 1 completed,Basic Experiment_Dutch_Acc1,9,Part 1 completed,,Accuracy_level_1,690.8999998569489,/task/320432/9/asset/house.jpg,,,f,image-keyboard-response,106,345142,0.0-2.6-0.52,,1,1,4530,,,0.9847619047619048,,,,test,,f
108,1647007771640,11/03/2022 14:09:31,1647007771563,1,11/03/2022 15:09:31,73265,15,task-2i7q,,20300996,BLIND,6021527,Intro Experiment: General explanations,complete,,,computer,Desktop or Laptop,Windows 10,Chrome 99.0.4844.51,1536x864,1536x864,Part 1 completed,Basic Experiment_Dutch_Acc1,9,Part 1 completed,,Accuracy_level_1,,/task/320432/9/asset/purple.png,,,,image-keyboard-response,107,349706,0.0-2.6-2.52,,,1,4560,,1,0.9877358490566037,5.28515,,,test,,
109,1647007776250,11/03/2022 14:09:36,1647007776160,1,11/03/2022 15:09:36,73265,15,task-2i7q,,20300996,BLIND,6021527,Intro Experiment: General explanations,complete,,,computer,Desktop or Laptop,Windows 10,Chrome 99.0.4844.51,1536x864,1536x864,Part 1 completed,Basic Experiment_Dutch_Acc1,9,Part 1 completed,,Accuracy_level_1,657.7999999523163,/task/320432/9/asset/house.jpg,,,f,image-keyboard-response,108,354304,0.0-2.6-0.53,,1,1,4590,,,0.9850467289719625,,,,test,,f
110,1647007780867,11/03/2022 14:09:40,1647007780785,1,11/03/2022 15:09:40,73265,15,task-2i7q,,20300996,BLIND,6021527,Intro Experiment: General explanations,complete,,,computer,Desktop or Laptop,Windows 10,Chrome 99.0.4844.51,1536x864,1536x864,Part 1 completed,Basic Experiment_Dutch_Acc1,9,Part 1 completed,,Accuracy_level_1,,/task/320432/9/asset/black.png,,,,image-keyboard-response,109,358929,0.0-2.6-2.53,,,1,4620,,1,0.987962962962963,5.43885,,,test,,
111,1647007785531,11/03/2022 14:09:45,1647007785439,1,11/03/2022 15:09:45,73265,15,task-2i7q,,20300996,BLIND,6021527,Intro Experiment: General explanations,complete,,,computer,Desktop or Laptop,Windows 10,Chrome 99.0.4844.51,1536x864,1536x864,Part 1 completed,Basic Experiment_Dutch_Acc1,9,Part 1 completed,,Accuracy_level_1,683,/task/320432/9/asset/plane.jpg,,,f,image-keyboard-response,110,363583,0.0-2.6-0.54,,1,1,4650,,,0.9853211009174312,,,,test,,f
112,1647007790640,11/03/2022 14:09:50,1647007790125,1,11/03/2022 15:09:50,73265,15,task-2i7q,,20300996,BLIND,6021527,Intro Experiment: General explanations,complete,,,computer,Desktop or Laptop,Windows 10,Chrome 99.0.4844.51,1536x864,1536x864,Part 1 completed,Basic Experiment_Dutch_Acc1,9,Part 1 completed,,Accuracy_level_1,,/task/320432/9/asset/red.png,,,,image-keyboard-response,111,368267,0.0-2.6-2.54,,,1,4680,,1,0.9881818181818182,5.594516666666666,,,test,,
113,1647007794917,11/03/2022 14:09:54,1647007794842,1,11/03/2022 15:09:54,73265,15,task-2i7q,,20300996,BLIND,6021527,Intro Experiment: General explanations,complete,,,computer,Desktop or Laptop,Windows 10,Chrome 99.0.4844.51,1536x864,1536x864,Part 1 completed,Basic Experiment_Dutch_Acc1,9,Part 1 completed,,Accuracy_level_1,648.4000000953674,/task/320432/9/asset/comb.jpg,,,j,image-keyboard-response,112,372986,0.0-2.6-0.55,,1,1,4710,,,0.9855855855855856,,,,test,,j
114,1647007799723,11/03/2022 14:09:59,1647007799587,1,11/03/2022 15:09:59,73265,15,task-2i7q,,20300996,BLIND,6021527,Intro Experiment: General explanations,complete,,,computer,Desktop or Laptop,Windows 10,Chrome 99.0.4844.51,1536x864,1536x864,Part 1 completed,Basic Experiment_Dutch_Acc1,9,Part 1 completed,,Accuracy_level_1,576.9000000953674,/task/320432/9/asset/red.png,,, ,image-keyboard-response,113,377731,0.0-2.6-2.55,,,1,4740,1,1,0.9883928571428572,5.7522166666666665,,,test,, 
1,1647460527720,16/03/2022 19:55:27,1647460527458,1,16/03/2022 20:55:27,73265,15,task-2i7q,,20470895,BLIND,6070227,Intro Experiment: General explanations,complete,,,computer,Desktop or Laptop,Windows 10,Chrome 99.0.4844.51,1366x768,1366x768,Part 1 completed,Basic Experiment_Dutch_Acc1,9,Part 1 completed,,Accuracy_level_1,,,,,,fullscreen,0,13639,0.0-0.0,,,,,,,,,,,,,
2,1647460571267,16/03/2022 19:56:11,1647460571083,1,16/03/2022 20:56:11,73265,15,task-2i7q,,20470895,BLIND,6070227,Intro Experiment: General explanations,complete,,,computer,Desktop or Laptop,Windows 10,Chrome 99.0.4844.51,1366x768,1366x768,Part 1 completed,Basic Experiment_Dutch_Acc1,9,Part 1 completed,,Accuracy_level_1,43594.60000038147,,,,,instructions,1,57266,0.0-1.0,,,,,,,,,2022-03-16T19:56:11.083Z,[1],test,,
3,1647460572781,16/03/2022 19:56:12,1647460572605,1,16/03/2022 20:56:12,73265,15,task-2i7q,,20470895,BLIND,6070227,Intro Experiment: General explanations,complete,,,computer,Desktop or Laptop,Windows 10,Chrome 99.0.4844.51,1366x768,1366x768,Part 1 completed,Basic Experiment_Dutch_Acc1,9,Part 1 completed,,Accuracy_level_1,1298.1000003814697,/task/320432/9/asset/pear.jpg,,,j,image-keyboard-response,2,58786,0.0-2.0-0.0,,1,1,1500,,,0.7,,,,test,,j
4,1647460574292,16/03/2022 19:56:14,1647460574125,1,16/03/2022 20:56:14,73265,15,task-2i7q,,20470895,BLIND,6070227,Intro Experiment: General explanations,complete,,,computer,Desktop or Laptop,Windows 10,Chrome 99.0.4844.51,1366x768,1366x768,Part 1 completed,Basic Experiment_Dutch_Acc1,9,Part 1 completed,,Accuracy_level_1,,/task/320432/9/asset/yellow.png,,, ,image-keyboard-response,3,60307,0.0-2.0-2.0,,,,1500,1,,0.35,0.0507,,,test,, 
5,1647460575803,16/03/2022 19:56:15,1647460575640,1,16/03/2022 20:56:15,73265,15,task-2i7q,,20470895,BLIND,6070227,Intro Experiment: General explanations,complete,,,computer,Desktop or Laptop,Windows 10,Chrome 99.0.4844.51,1366x768,1366x768,Part 1 completed,Basic Experiment_Dutch_Acc1,9,Part 1 completed,,Accuracy_level_1,814.0999994277954,/task/320432/9/asset/key.jpg,,,j,image-keyboard-response,4,61821,0.0-2.0-0.1,,1,1,1500,,,0.4666666666666666,,,,test,,j
6,1647460577323,16/03/2022 19:56:17,1647460577147,1,16/03/2022 20:56:17,73265,15,task-2i7q,,20470895,BLIND,6070227,Intro Experiment: General explanations,complete,,,computer,Desktop or Laptop,Windows 10,Chrome 99.0.4844.51,1366x768,1366x768,Part 1 completed,Basic Experiment_Dutch_Acc1,9,Part 1 completed,,Accuracy_level_1,667.5,/task/320432/9/asset/yellow.png,,, ,image-keyboard-response,5,63329,0.0-2.0-2.1,,,1,1500,1,1,0.675,0.10106666666666667,,,test,, 
7,1647460578865,16/03/2022 19:56:18,1647460578699,1,16/03/2022 20:56:18,73265,15,task-2i7q,,20470895,BLIND,6070227,Intro Experiment: General explanations,complete,,,computer,Desktop or Laptop,Windows 10,Chrome 99.0.4844.51,1366x768,1366x768,Part 1 completed,Basic Experiment_Dutch_Acc1,9,Part 1 completed,,Accuracy_level_1,669.5,/task/320432/9/asset/house.jpg,,,f,image-keyboard-response,6,64881,0.0-2.0-0.2,,1,1,1530,,,0.68,,,,test,,f
8,1647460580436,16/03/2022 19:56:20,1647460580276,1,16/03/2022 20:56:20,73265,15,task-2i7q,,20470895,BLIND,6070227,Intro Experiment: General explanations,complete,,,computer,Desktop or Laptop,Windows 10,Chrome 99.0.4844.51,1366x768,1366x768,Part 1 completed,Basic Experiment_Dutch_Acc1,9,Part 1 completed,,Accuracy_level_1,,/task/320432/9/asset/green.png,,,,image-keyboard-response,7,66459,0.0-2.0-2.2,,,1,1560,,1,0.7833333333333333,0.15321666666666667,,,test,,
9,1647460582035,16/03/2022 19:56:22,1647460581878,1,16/03/2022 20:56:21,73265,15,task-2i7q,,20470895,BLIND,6070227,Intro Experiment: General explanations,complete,,,computer,Desktop or Laptop,Windows 10,Chrome 99.0.4844.51,1366x768,1366x768,Part 1 completed,Basic Experiment_Dutch_Acc1,9,Part 1 completed,,Accuracy_level_1,647.1999998092651,/task/320432/9/asset/pear.jpg,,,j,image-keyboard-response,8,68060,0.0-2.0-0.3,,1,1,1590,,,0.7714285714285715,,,,test,,j
10,1647460583666,16/03/2022 19:56:23,1647460583507,1,16/03/2022 20:56:23,73265,15,task-2i7q,,20470895,BLIND,6070227,Intro Experiment: General explanations,complete,,,computer,Desktop or Laptop,Windows 10,Chrome 99.0.4844.51,1366x768,1366x768,Part 1 completed,Basic Experiment_Dutch_Acc1,9,Part 1 completed,,Accuracy_level_1,733.4000005722046,/task/320432/9/asset/green.png,,, ,image-keyboard-response,9,69690,0.0-2.0-2.3,,,1,1620,1,1,0.8374999999999999,0.20706666666666668,,,test,, 
11,1647460585334,16/03/2022 19:56:25,1647460585171,1,16/03/2022 20:56:25,73265,15,task-2i7q,,20470895,BLIND,6070227,Intro Experiment: General explanations,complete,,,computer,Desktop or Laptop,Windows 10,Chrome 99.0.4844.51,1366x768,1366x768,Part 1 completed,Basic Experiment_Dutch_Acc1,9,Part 1 completed,,Accuracy_level_1,830.6999998092651,/task/320432/9/asset/plane.jpg,,,f,image-keyboard-response,10,71354,0.0-2.0-0.4,,1,1,1650,,,0.8222222222222223,,,,test,,f
12,1647460587109,16/03/2022 19:56:27,1647460586864,1,16/03/2022 20:56:26,73265,15,task-2i7q,,20470895,BLIND,6070227,Intro Experiment: General explanations,complete,,,computer,Desktop or Laptop,Windows 10,Chrome 99.0.4844.51,1366x768,1366x768,Part 1 completed,Basic Experiment_Dutch_Acc1,9,Part 1 completed,,Accuracy_level_1,,/task/320432/9/asset/green.png,,, ,image-keyboard-response,11,73047,0.0-2.0-2.4,,,,1680,1,,0.74,0.2630166666666667,,,test,, 
13,1647460587183,16/03/2022 19:56:27,1647460586992,1,16/03/2022 20:56:26,73265,15,task-2i7q,,20470895,BLIND,6070227,Intro Experiment: General explanations,complete,,,computer,Desktop or Laptop,Windows 10,Chrome 99.0.4844.51,1366x768,1366x768,Part 1 completed,Basic Experiment_Dutch_Acc1,9,Part 1 completed,,Accuracy_level_1,,"<span style=""color:red;font-size:50px;font-weight: bold;"">FOUT!</span>",,,,html-keyboard-response,12,73175,0.0-2.0-3.4-0.4,,,,,,,,,,,,,
14,1647460588867,16/03/2022 19:56:28,1647460588707,1,16/03/2022 20:56:28,73265,15,task-2i7q,,20470895,BLIND,6070227,Intro Experiment: General explanations,complete,,,computer,Desktop or Laptop,Windows 10,Chrome 99.0.4844.51,1366x768,1366x768,Part 1 completed,Basic Experiment_Dutch_Acc1,9,Part 1 completed,,Accuracy_level_1,,/task/320432/9/asset/truck.jpg,,,f,image-keyboard-response,13,74889,0.0-2.0-0.5,,,,1710,,,0.6166666666666667,,,,test,,f
15,1647460588980,16/03/2022 19:56:28,1647460588817,1,16/03/2022 20:56:28,73265,15,task-2i7q,,20470895,BLIND,6070227,Intro Experiment: General explanations,complete,,,computer,Desktop or Laptop,Windows 10,Chrome 99.0.4844.51,1366x768,1366x768,Part 1 completed,Basic Experiment_Dutch_Acc1,9,Part 1 completed,,Accuracy_level_1,,"<span style=""color:red;font-size:50px;font-weight: bold;"">FOUT!</span>",,,,html-keyboard-response,14,75000,0.0-2.0-1.5-0.5,,,,,,,,,,,,,
16,1647460590715,16/03/2022 19:56:30,1647460590564,1,16/03/2022 20:56:30,73265,15,task-2i7q,,20470895,BLIND,6070227,Intro Experiment: General explanations,complete,,,computer,Desktop or Laptop,Windows 10,Chrome 99.0.4844.51,1366x768,1366x768,Part 1 completed,Basic Experiment_Dutch_Acc1,9,Part 1 completed,,Accuracy_level_1,,/task/320432/9/asset/pink.png,,,,image-keyboard-response,15,76747,0.0-2.0-2.5,,,1,1740,,1,0.6214285714285713,0.3246833333333333,,,test,,
17,1647460592525,16/03/2022 19:56:32,1647460592367,1,16/03/2022 20:56:32,73265,15,task-2i7q,,20470895,BLIND,6070227,Intro Experiment: General explanations,complete,,,computer,Desktop or Laptop,Windows 10,Chrome 99.0.4844.51,1366x768,1366x768,Part 1 completed,Basic Experiment_Dutch_Acc1,9,Part 1 completed,,Accuracy_level_1,553.2000007629395,/task/320432/9/asset/pear.jpg,,,j,image-keyboard-response,16,78533,0.0-2.0-0.6,,1,1,1770,,,0.6266666666666667,,,,test,,j
18,1647460594359,16/03/2022 19:56:34,1647460594195,1,16/03/2022 20:56:34,73265,15,task-2i7q,,20470895,BLIND,6070227,Intro Experiment: General explanations,complete,,,computer,Desktop or Laptop,Windows 10,Chrome 99.0.4844.51,1366x768,1366x768,Part 1 completed,Basic Experiment_Dutch_Acc1,9,Part 1 completed,,Accuracy_level_1,665.6999998092651,/task/320432/9/asset/pink.png,,, ,image-keyboard-response,17,80377,0.0-2.0-2.6,,,1,1800,1,1,0.66875,0.3852,,,test,, 
19,1647460596218,16/03/2022 19:56:36,1647460596048,1,16/03/2022 20:56:36,73265,15,task-2i7q,,20470895,BLIND,6070227,Intro Experiment: General explanations,complete,,,computer,Desktop or Laptop,Windows 10,Chrome 99.0.4844.51,1366x768,1366x768,Part 1 completed,Basic Experiment_Dutch_Acc1,9,Part 1 completed,,Accuracy_level_1,644.3000001907349,/task/320432/9/asset/key.jpg,,,j,image-keyboard-response,18,82230,0.0-2.0-0.7,,1,1,1830,,,0.6705882352941177,,,,test,,j
20,1647460598077,16/03/2022 19:56:38,1647460597926,1,16/03/2022 20:56:37,73265,15,task-2i7q,,20470895,BLIND,6070227,Intro Experiment: General explanations,complete,,,computer,Desktop or Laptop,Windows 10,Chrome 99.0.4844.51,1366x768,1366x768,Part 1 completed,Basic Experiment_Dutch_Acc1,9,Part 1 completed,,Accuracy_level_1,,/task/320432/9/asset/blue.png,,,,image-keyboard-response,19,84109,0.0-2.0-2.7,,,1,1860,,1,0.7055555555555555,0.44738333333333336,,,test,,
21,1647460599983,16/03/2022 19:56:39,1647460599823,1,16/03/2022 20:56:39,73265,15,task-2i7q,,20470895,BLIND,6070227,Intro Experiment: General explanations,complete,,,computer,Desktop or Laptop,Windows 10,Chrome 99.0.4844.51,1366x768,1366x768,Part 1 completed,Basic Experiment_Dutch_Acc1,9,Part 1 completed,,Accuracy_level_1,624,/task/320432/9/asset/house.jpg,,,f,image-keyboard-response,20,86006,0.0-2.1-0.8,,1,1,1890,,,0.7052631578947368,,,,test,,f
22,1647460601932,16/03/2022 19:56:41,1647460601762,1,16/03/2022 20:56:41,73265,15,task-2i7q,,20470895,BLIND,6070227,Intro Experiment: General explanations,complete,,,computer,Desktop or Laptop,Windows 10,Chrome 99.0.4844.51,1366x768,1366x768,Part 1 completed,Basic Experiment_Dutch_Acc1,9,Part 1 completed,,Accuracy_level_1,,/task/320432/9/asset/red.png,,,,image-keyboard-response,21,87944,0.0-2.1-2.8,,,1,1920,,1,0.735,0.5113,,,test,,
23,1647460603897,16/03/2022 19:56:43,1647460603740,1,16/03/2022 20:56:43,73265,15,task-2i7q,,20470895,BLIND,6070227,Intro Experiment: General explanations,complete,,,computer,Desktop or Laptop,Windows 10,Chrome 99.0.4844.51,1366x768,1366x768,Part 1 completed,Basic Experiment_Dutch_Acc1,9,Part 1 completed,,Accuracy_level_1,774.1000003814697,/task/320432/9/asset/glass.jpg,,,j,image-keyboard-response,22,89922,0.0-2.1-0.9,,1,1,1950,,,0.7333333333333334,,,,test,,j
24,1647460605889,16/03/2022 19:56:45,1647460605732,1,16/03/2022 20:56:45,73265,15,task-2i7q,,20470895,BLIND,6070227,Intro Experiment: General explanations,complete,,,computer,Desktop or Laptop,Windows 10,Chrome 99.0.4844.51,1366x768,1366x768,Part 1 completed,Basic Experiment_Dutch_Acc1,9,Part 1 completed,,Accuracy_level_1,769.5,/task/320432/9/asset/red.png,,, ,image-keyboard-response,23,91914,0.0-2.1-2.9,,,1,1980,1,1,0.7590909090909093,0.5774833333333333,,,test,, 
25,1647460607913,16/03/2022 19:56:47,1647460607762,1,16/03/2022 20:56:47,73265,15,task-2i7q,,20470895,BLIND,6070227,Intro Experiment: General explanations,complete,,,computer,Desktop or Laptop,Windows 10,Chrome 99.0.4844.51,1366x768,1366x768,Part 1 completed,Basic Experiment_Dutch_Acc1,9,Part 1 completed,,Accuracy_level_1,657.1999998092651,/task/320432/9/asset/house.jpg,,,f,image-keyboard-response,24,93932,0.0-2.1-0.10,,1,1,2010,,,0.7565217391304347,,,,test,,f
26,1647460610007,16/03/2022 19:56:50,1647460609832,1,16/03/2022 20:56:49,73265,15,task-2i7q,,20470895,BLIND,6070227,Intro Experiment: General explanations,complete,,,computer,Desktop or Laptop,Windows 10,Chrome 99.0.4844.51,1366x768,1366x768,Part 1 completed,Basic Experiment_Dutch_Acc1,9,Part 1 completed,,Accuracy_level_1,759.6999998092651,/task/320432/9/asset/red.png,,, ,image-keyboard-response,25,96014,0.0-2.1-2.10,,,1,2040,1,1,0.7791666666666667,0.6458166666666667,,,test,, 
27,1647460612089,16/03/2022 19:56:52,1647460611918,1,16/03/2022 20:56:51,73265,15,task-2i7q,,20470895,BLIND,6070227,Intro Experiment: General explanations,complete,,,computer,Desktop or Laptop,Windows 10,Chrome 99.0.4844.51,1366x768,1366x768,Part 1 completed,Basic Experiment_Dutch_Acc1,9,Part 1 completed,,Accuracy_level_1,717.3999996185303,/task/320432/9/asset/house.jpg,,,f,image-keyboard-response,26,98100,0.0-2.1-0.11,,1,1,2070,,,0.7759999999999999,,,,test,,f
28,1647460614223,16/03/2022 19:56:54,1647460614051,1,16/03/2022 20:56:54,73265,15,task-2i7q,,20470895,BLIND,6070227,Intro Experiment: General explanations,complete,,,computer,Desktop or Laptop,Windows 10,Chrome 99.0.4844.51,1366x768,1366x768,Part 1 completed,Basic Experiment_Dutch_Acc1,9,Part 1 completed,,Accuracy_level_1,,/task/320432/9/asset/purple.png,,,,image-keyboard-response,27,100225,0.0-2.1-2.11,,,1,2100,,1,0.7961538461538461,0.7161333333333333,,,test,,
29,1647460616385,16/03/2022 19:56:56,1647460616221,1,16/03/2022 20:56:56,73265,15,task-2i7q,,20470895,BLIND,6070227,Intro Experiment: General explanations,complete,,,computer,Desktop or Laptop,Windows 10,Chrome 99.0.4844.51,1366x768,1366x768,Part 1 completed,Basic Experiment_Dutch_Acc1,9,Part 1 completed,,Accuracy_level_1,594.1000003814697,/task/320432/9/asset/key.jpg,,,j,image-keyboard-response,28,102387,0.0-2.1-0.12,,1,1,2130,,,0.7925925925925925,,,,test,,j
30,1647460618541,16/03/2022 19:56:58,1647460618390,1,16/03/2022 20:56:58,73265,15,task-2i7q,,20470895,BLIND,6070227,Intro Experiment: General explanations,complete,,,computer,Desktop or Laptop,Windows 10,Chrome 99.0.4844.51,1366x768,1366x768,Part 1 completed,Basic Experiment_Dutch_Acc1,9,Part 1 completed,,Accuracy_level_1,,/task/320432/9/asset/pink.png,,,,image-keyboard-response,29,104573,0.0-2.1-2.12,,,1,2160,,1,0.8107142857142858,0.78845,,,test,,
31,1647460620749,16/03/2022 19:57:00,1647460620592,1,16/03/2022 20:57:00,73265,15,task-2i7q,,20470895,BLIND,6070227,Intro Experiment: General explanations,complete,,,computer,Desktop or Laptop,Windows 10,Chrome 99.0.4844.51,1366x768,1366x768,Part 1 completed,Basic Experiment_Dutch_Acc1,9,Part 1 completed,,Accuracy_level_1,695.8000001907349,/task/320432/9/asset/glass.jpg,,,j,image-keyboard-response,30,106774,0.0-2.1-0.13,,1,1,2190,,,0.8068965517241379,,,,test,,j
32,1647460622987,16/03/2022 19:57:02,1647460622827,1,16/03/2022 20:57:02,73265,15,task-2i7q,,20470895,BLIND,6070227,Intro Experiment: General explanations,complete,,,computer,Desktop or Laptop,Windows 10,Chrome 99.0.4844.51,1366x768,1366x768,Part 1 completed,Basic Experiment_Dutch_Acc1,9,Part 1 completed,,Accuracy_level_1,433.9000005722046,/task/320432/9/asset/pink.png,,, ,image-keyboard-response,31,109009,0.0-2.1-2.13,,,1,2220,1,1,0.8233333333333334,0.8624,,,test,, 
33,1647460625241,16/03/2022 19:57:05,1647460625089,1,16/03/2022 20:57:05,73265,15,task-2i7q,,20470895,BLIND,6070227,Intro Experiment: General explanations,complete,,,computer,Desktop or Laptop,Windows 10,Chrome 99.0.4844.51,1366x768,1366x768,Part 1 completed,Basic Experiment_Dutch_Acc1,9,Part 1 completed,,Accuracy_level_1,636.0999994277954,/task/320432/9/asset/plane.jpg,,,f,image-keyboard-response,32,111272,0.0-2.1-0.14,,1,1,2250,,,0.8193548387096774,,,,test,,f
34,1647460627545,16/03/2022 19:57:07,1647460627382,1,16/03/2022 20:57:07,73265,15,task-2i7q,,20470895,BLIND,6070227,Intro Experiment: General explanations,complete,,,computer,Desktop or Laptop,Windows 10,Chrome 99.0.4844.51,1366x768,1366x768,Part 1 completed,Basic Experiment_Dutch_Acc1,9,Part 1 completed,,Accuracy_level_1,472,/task/320432/9/asset/pink.png,,, ,image-keyboard-response,33,113564,0.0-2.1-2.14,,,1,2280,1,1,0.834375,0.9383166666666667,,,test,, 
35,1647460629865,16/03/2022 19:57:09,1647460629706,1,16/03/2022 20:57:09,73265,15,task-2i7q,,20470895,BLIND,6070227,Intro Experiment: General explanations,complete,,,computer,Desktop or Laptop,Windows 10,Chrome 99.0.4844.51,1366x768,1366x768,Part 1 completed,Basic Experiment_Dutch_Acc1,9,Part 1 completed,,Accuracy_level_1,619.3000001907349,/task/320432/9/asset/glass.jpg,,,j,image-keyboard-response,34,115889,0.0-2.1-0.15,,1,1,2310,,,0.8303030303030302,,,,test,,j
36,1647460632214,16/03/2022 19:57:12,1647460632057,1,16/03/2022 20:57:12,73265,15,task-2i7q,,20470895,BLIND,6070227,Intro Experiment: General explanations,complete,,,computer,Desktop or Laptop,Windows 10,Chrome 99.0.4844.51,1366x768,1366x768,Part 1 completed,Basic Experiment_Dutch_Acc1,9,Part 1 completed,,Accuracy_level_1,409.5,/task/320432/9/asset/pink.png,,, ,image-keyboard-response,35,118239,0.0-2.1-2.15,,,1,2340,1,1,0.8441176470588235,1.0162333333333333,,,test,, 
37,1647460634593,16/03/2022 19:57:14,1647460634442,1,16/03/2022 20:57:14,73265,15,task-2i7q,,20470895,BLIND,6070227,Intro Experiment: General explanations,complete,,,computer,Desktop or Laptop,Windows 10,Chrome 99.0.4844.51,1366x768,1366x768,Part 1 completed,Basic Experiment_Dutch_Acc1,9,Part 1 completed,,Accuracy_level_1,710.9000005722046,/task/320432/9/asset/pear.jpg,,,j,image-keyboard-response,36,120624,0.0-2.2-0.16,,1,1,2370,,,0.84,,,,test,,j
38,1647460637025,16/03/2022 19:57:17,1647460636849,1,16/03/2022 20:57:16,73265,15,task-2i7q,,20470895,BLIND,6070227,Intro Experiment: General explanations,complete,,,computer,Desktop or Laptop,Windows 10,Chrome 99.0.4844.51,1366x768,1366x768,Part 1 completed,Basic Experiment_Dutch_Acc1,9,Part 1 completed,,Accuracy_level_1,,/task/320432/9/asset/black.png,,,,image-keyboard-response,37,123032,0.0-2.2-2.16,,,1,2400,,1,0.8527777777777777,1.0961,,,test,,
39,1647460639470,16/03/2022 19:57:19,1647460639284,1,16/03/2022 20:57:19,73265,15,task-2i7q,,20470895,BLIND,6070227,Intro Experiment: General explanations,complete,,,computer,Desktop or Laptop,Windows 10,Chrome 99.0.4844.51,1366x768,1366x768,Part 1 completed,Basic Experiment_Dutch_Acc1,9,Part 1 completed,,Accuracy_level_1,794,/task/320432/9/asset/elephant.jpg,,,f,image-keyboard-response,38,125466,0.0-2.2-0.17,,1,1,2430,,,0.8486486486486486,,,,test,,f
40,1647460641977,16/03/2022 19:57:21,1647460641782,1,16/03/2022 20:57:21,73265,15,task-2i7q,,20470895,BLIND,6070227,Intro Experiment: General explanations,complete,,,computer,Desktop or Laptop,Windows 10,Chrome 99.0.4844.51,1366x768,1366x768,Part 1 completed,Basic Experiment_Dutch_Acc1,9,Part 1 completed,,Accuracy_level_1,,/task/320432/9/asset/purple.png,,,,image-keyboard-response,39,127965,0.0-2.2-2.17,,,1,2460,,1,0.8605263157894738,1.1783166666666667,,,test,,
41,1647460644435,16/03/2022 19:57:24,1647460644280,1,16/03/2022 20:57:24,73265,15,task-2i7q,,20470895,BLIND,6070227,Intro Experiment: General explanations,complete,,,computer,Desktop or Laptop,Windows 10,Chrome 99.0.4844.51,1366x768,1366x768,Part 1 completed,Basic Experiment_Dutch_Acc1,9,Part 1 completed,,Accuracy_level_1,798,/task/320432/9/asset/truck.jpg,,,f,image-keyboard-response,40,130463,0.0-2.2-0.18,,1,1,2490,,,0.8564102564102566,,,,test,,f
42,1647460646982,16/03/2022 19:57:26,1647460646814,1,16/03/2022 20:57:26,73265,15,task-2i7q,,20470895,BLIND,6070227,Intro Experiment: General explanations,complete,,,computer,Desktop or Laptop,Windows 10,Chrome 99.0.4844.51,1366x768,1366x768,Part 1 completed,Basic Experiment_Dutch_Acc1,9,Part 1 completed,,Accuracy_level_1,620.8000001907349,/task/320432/9/asset/purple.png,,, ,image-keyboard-response,41,132997,0.0-2.2-2.18,,,1,2520,1,1,0.8675,1.2621833333333334,,,test,, 
43,1647460649534,16/03/2022 19:57:29,1647460649374,1,16/03/2022 20:57:29,73265,15,task-2i7q,,20470895,BLIND,6070227,Intro Experiment: General explanations,complete,,,computer,Desktop or Laptop,Windows 10,Chrome 99.0.4844.51,1366x768,1366x768,Part 1 completed,Basic Experiment_Dutch_Acc1,9,Part 1 completed,,Accuracy_level_1,731.6000003814697,/task/320432/9/asset/plane.jpg,,,f,image-keyboard-response,42,135556,0.0-2.2-0.19,,1,1,2550,,,0.8634146341463416,,,,test,,f
44,1647460652127,16/03/2022 19:57:32,1647460651964,1,16/03/2022 20:57:31,73265,15,task-2i7q,,20470895,BLIND,6070227,Intro Experiment: General explanations,complete,,,computer,Desktop or Laptop,Windows 10,Chrome 99.0.4844.51,1366x768,1366x768,Part 1 completed,Basic Experiment_Dutch_Acc1,9,Part 1 completed,,Accuracy_level_1,571.4000005722046,/task/320432/9/asset/purple.png,,, ,image-keyboard-response,43,138146,0.0-2.2-2.19,,,1,2580,1,1,0.8738095238095239,1.3480166666666666,,,test,, 
45,1647460654760,16/03/2022 19:57:34,1647460654602,1,16/03/2022 20:57:34,73265,15,task-2i7q,,20470895,BLIND,6070227,Intro Experiment: General explanations,complete,,,computer,Desktop or Laptop,Windows 10,Chrome 99.0.4844.51,1366x768,1366x768,Part 1 completed,Basic Experiment_Dutch_Acc1,9,Part 1 completed,,Accuracy_level_1,546,/task/320432/9/asset/glass.jpg,,,j,image-keyboard-response,44,140785,0.0-2.2-0.20,,1,1,2610,,,0.8697674418604651,,,,test,,j
46,1647460657416,16/03/2022 19:57:37,1647460657256,1,16/03/2022 20:57:37,73265,15,task-2i7q,,20470895,BLIND,6070227,Intro Experiment: General explanations,complete,,,computer,Desktop or Laptop,Windows 10,Chrome 99.0.4844.51,1366x768,1366x768,Part 1 completed,Basic Experiment_Dutch_Acc1,9,Part 1 completed,,Accuracy_level_1,,/task/320432/9/asset/green.png,,,,image-keyboard-response,45,143439,0.0-2.2-2.20,,,1,2640,,1,0.8795454545454546,1.4362166666666667,,,test,,
47,1647460660118,16/03/2022 19:57:40,1647460659945,1,16/03/2022 20:57:39,73265,15,task-2i7q,,20470895,BLIND,6070227,Intro Experiment: General explanations,complete,,,computer,Desktop or Laptop,Windows 10,Chrome 99.0.4844.51,1366x768,1366x768,Part 1 completed,Basic Experiment_Dutch_Acc1,9,Part 1 completed,,Accuracy_level_1,954.1000003814697,/task/320432/9/asset/plane.jpg,,,f,image-keyboard-response,46,146127,0.0-2.2-0.21,,1,1,2670,,,0.8755555555555555,,,,test,,f
48,1647460662814,16/03/2022 19:57:42,1647460662662,1,16/03/2022 20:57:42,73265,15,task-2i7q,,20470895,BLIND,6070227,Intro Experiment: General explanations,complete,,,computer,Desktop or Laptop,Windows 10,Chrome 99.0.4844.51,1366x768,1366x768,Part 1 completed,Basic Experiment_Dutch_Acc1,9,Part 1 completed,,Accuracy_level_1,969.6999998092651,/task/320432/9/asset/green.png,,, ,image-keyboard-response,47,148844,0.0-2.2-2.21,,,1,2700,1,1,0.8847826086956523,1.5263166666666668,,,test,, 
49,1647460665591,16/03/2022 19:57:45,1647460665408,1,16/03/2022 20:57:45,73265,15,task-2i7q,,20470895,BLIND,6070227,Intro Experiment: General explanations,complete,,,computer,Desktop or Laptop,Windows 10,Chrome 99.0.4844.51,1366x768,1366x768,Part 1 completed,Basic Experiment_Dutch_Acc1,9,Part 1 completed,,Accuracy_level_1,823.5999994277954,/task/320432/9/asset/glass.jpg,,,j,image-keyboard-response,48,151591,0.0-2.2-0.22,,1,1,2730,,,0.8808510638297872,,,,test,,j
50,1647460668373,16/03/2022 19:57:48,1647460668205,1,16/03/2022 20:57:48,73265,15,task-2i7q,,20470895,BLIND,6070227,Intro Experiment: General explanations,complete,,,computer,Desktop or Laptop,Windows 10,Chrome 99.0.4844.51,1366x768,1366x768,Part 1 completed,Basic Experiment_Dutch_Acc1,9,Part 1 completed,,Accuracy_level_1,,/task/320432/9/asset/black.png,,,,image-keyboard-response,49,154387,0.0-2.2-2.22,,,1,2760,,1,0.8895833333333334,1.6187,,,test,,
51,1647460671159,16/03/2022 19:57:51,1647460671003,1,16/03/2022 20:57:51,73265,15,task-2i7q,,20470895,BLIND,6070227,Intro Experiment: General explanations,complete,,,computer,Desktop or Laptop,Windows 10,Chrome 99.0.4844.51,1366x768,1366x768,Part 1 completed,Basic Experiment_Dutch_Acc1,9,Part 1 completed,,Accuracy_level_1,706.2000007629395,/task/320432/9/asset/pear.jpg,,,j,image-keyboard-response,50,157185,0.0-2.2-0.23,,1,1,2790,,,0.8857142857142858,,,,test,,j
52,1647460674004,16/03/2022 19:57:54,1647460673839,1,16/03/2022 20:57:53,73265,15,task-2i7q,,20470895,BLIND,6070227,Intro Experiment: General explanations,complete,,,computer,Desktop or Laptop,Windows 10,Chrome 99.0.4844.51,1366x768,1366x768,Part 1 completed,Basic Experiment_Dutch_Acc1,9,Part 1 completed,,Accuracy_level_1,,/task/320432/9/asset/black.png,,, ,image-keyboard-response,51,160021,0.0-2.2-2.23,,,,2820,1,,0.8680000000000001,1.7126,,,test,, 
53,1647460674104,16/03/2022 19:57:54,1647460673949,1,16/03/2022 20:57:53,73265,15,task-2i7q,,20470895,BLIND,6070227,Intro Experiment: General explanations,complete,,,computer,Desktop or Laptop,Windows 10,Chrome 99.0.4844.51,1366x768,1366x768,Part 1 completed,Basic Experiment_Dutch_Acc1,9,Part 1 completed,,Accuracy_level_1,,"<span style=""color:red;font-size:50px;font-weight: bold;"">FOUT!</span>",,,,html-keyboard-response,52,160132,0.0-2.2-3.23-0.23,,,,,,,,,,,,,
54,1647460677019,16/03/2022 19:57:57,1647460676848,1,16/03/2022 20:57:56,73265,15,task-2i7q,,20470895,BLIND,6070227,Intro Experiment: General explanations,complete,,,computer,Desktop or Laptop,Windows 10,Chrome 99.0.4844.51,1366x768,1366x768,Part 1 completed,Basic Experiment_Dutch_Acc1,9,Part 1 completed,,Accuracy_level_1,931.3999996185303,/task/320432/9/asset/key.jpg,,,j,image-keyboard-response,53,163014,0.0-2.3-0.24,,1,1,2850,,,0.8480769230769231,,,,test,,j
55,1647460679904,16/03/2022 19:57:59,1647460679739,1,16/03/2022 20:57:59,73265,15,task-2i7q,,20470895,BLIND,6070227,Intro Experiment: General explanations,complete,,,computer,Desktop or Laptop,Windows 10,Chrome 99.0.4844.51,1366x768,1366x768,Part 1 completed,Basic Experiment_Dutch_Acc1,9,Part 1 completed,,Accuracy_level_1,775.1999998092651,/task/320432/9/asset/black.png,,, ,image-keyboard-response,54,165922,0.0-2.3-2.24,,,1,2880,1,1,0.8566037735849058,1.8109333333333333,,,test,, 
56,1647460682835,16/03/2022 19:58:02,1647460682671,1,16/03/2022 20:58:02,73265,15,task-2i7q,,20470895,BLIND,6070227,Intro Experiment: General explanations,complete,,,computer,Desktop or Laptop,Windows 10,Chrome 99.0.4844.51,1366x768,1366x768,Part 1 completed,Basic Experiment_Dutch_Acc1,9,Part 1 completed,,Accuracy_level_1,862.6999998092651,/task/320432/9/asset/plane.jpg,,,f,image-keyboard-response,55,168854,0.0-2.3-0.25,,1,1,2910,,,0.8537037037037037,,,,test,,f
57,1647460685789,16/03/2022 19:58:05,1647460685635,1,16/03/2022 20:58:05,73265,15,task-2i7q,,20470895,BLIND,6070227,Intro Experiment: General explanations,complete,,,computer,Desktop or Laptop,Windows 10,Chrome 99.0.4844.51,1366x768,1366x768,Part 1 completed,Basic Experiment_Dutch_Acc1,9,Part 1 completed,,Accuracy_level_1,,/task/320432/9/asset/white.png,,,,image-keyboard-response,56,171817,0.0-2.3-2.25,,,1,2940,,1,0.8618181818181818,1.9092,,,test,,
58,1647460688775,16/03/2022 19:58:08,1647460688620,1,16/03/2022 20:58:08,73265,15,task-2i7q,,20470895,BLIND,6070227,Intro Experiment: General explanations,complete,,,computer,Desktop or Laptop,Windows 10,Chrome 99.0.4844.51,1366x768,1366x768,Part 1 completed,Basic Experiment_Dutch_Acc1,9,Part 1 completed,,Accuracy_level_1,742.2000007629395,/task/320432/9/asset/plane.jpg,,,f,image-keyboard-response,57,174802,0.0-2.3-0.26,,1,1,2970,,,0.8589285714285714,,,,test,,f
59,1647460691795,16/03/2022 19:58:11,1647460691632,1,16/03/2022 20:58:11,73265,15,task-2i7q,,20470895,BLIND,6070227,Intro Experiment: General explanations,complete,,,computer,Desktop or Laptop,Windows 10,Chrome 99.0.4844.51,1366x768,1366x768,Part 1 completed,Basic Experiment_Dutch_Acc1,9,Part 1 completed,,Accuracy_level_1,,/task/320432/9/asset/purple.png,,,,image-keyboard-response,58,177811,0.0-2.3-2.26,,,1,3000,,1,0.8666666666666667,2.00915,,,test,,
60,1647460694829,16/03/2022 19:58:14,1647460694672,1,16/03/2022 20:58:14,73265,15,task-2i7q,,20470895,BLIND,6070227,Intro Experiment: General explanations,complete,,,computer,Desktop or Laptop,Windows 10,Chrome 99.0.4844.51,1366x768,1366x768,Part 1 completed,Basic Experiment_Dutch_Acc1,9,Part 1 completed,,Accuracy_level_1,576.3000001907349,/task/320432/9/asset/glass.jpg,,,j,image-keyboard-response,59,180854,0.0-2.3-0.27,,1,1,3030,,,0.8637931034482758,,,,test,,j
61,1647460697908,16/03/2022 19:58:17,1647460697743,1,16/03/2022 20:58:17,73265,15,task-2i7q,,20470895,BLIND,6070227,Intro Experiment: General explanations,complete,,,computer,Desktop or Laptop,Windows 10,Chrome 99.0.4844.51,1366x768,1366x768,Part 1 completed,Basic Experiment_Dutch_Acc1,9,Part 1 completed,,Accuracy_level_1,450.4000005722046,/task/320432/9/asset/purple.png,,, ,image-keyboard-response,60,183925,0.0-2.3-2.27,,,1,3060,1,1,0.871186440677966,2.111,,,test,, 
62,1647460701008,16/03/2022 19:58:21,1647460700846,1,16/03/2022 20:58:20,73265,15,task-2i7q,,20470895,BLIND,6070227,Intro Experiment: General explanations,complete,,,computer,Desktop or Laptop,Windows 10,Chrome 99.0.4844.51,1366x768,1366x768,Part 1 completed,Basic Experiment_Dutch_Acc1,9,Part 1 completed,,Accuracy_level_1,787.7000007629395,/task/320432/9/asset/house.jpg,,,f,image-keyboard-response,61,187028,0.0-2.3-0.28,,1,1,3090,,,0.8683333333333334,,,,test,,f
63,1647460704133,16/03/2022 19:58:24,1647460703979,1,16/03/2022 20:58:23,73265,15,task-2i7q,,20470895,BLIND,6070227,Intro Experiment: General explanations,complete,,,computer,Desktop or Laptop,Windows 10,Chrome 99.0.4844.51,1366x768,1366x768,Part 1 completed,Basic Experiment_Dutch_Acc1,9,Part 1 completed,,Accuracy_level_1,699.6000003814697,/task/320432/9/asset/purple.png,,, ,image-keyboard-response,62,190161,0.0-2.3-2.28,,,1,3120,1,1,0.8754098360655738,2.214933333333333,,,test,, 
64,1647460707305,16/03/2022 19:58:27,1647460707147,1,16/03/2022 20:58:27,73265,15,task-2i7q,,20470895,BLIND,6070227,Intro Experiment: General explanations,complete,,,computer,Desktop or Laptop,Windows 10,Chrome 99.0.4844.51,1366x768,1366x768,Part 1 completed,Basic Experiment_Dutch_Acc1,9,Part 1 completed,,Accuracy_level_1,772.2999992370605,/task/320432/9/asset/elephant.jpg,,,f,image-keyboard-response,63,193329,0.0-2.3-0.29,,1,1,3150,,,0.8725806451612902,,,,test,,f
65,1647460710522,16/03/2022 19:58:30,1647460710370,1,16/03/2022 20:58:30,73265,15,task-2i7q,,20470895,BLIND,6070227,Intro Experiment: General explanations,complete,,,computer,Desktop or Laptop,Windows 10,Chrome 99.0.4844.51,1366x768,1366x768,Part 1 completed,Basic Experiment_Dutch_Acc1,9,Part 1 completed,,Accuracy_level_1,604.9000005722046,/task/320432/9/asset/purple.png,,, ,image-keyboard-response,64,196532,0.0-2.3-2.29,,,1,3180,1,1,0.8793650793650795,2.32145,,,test,, 
66,1647460713745,16/03/2022 19:58:33,1647460713589,1,16/03/2022 20:58:33,73265,15,task-2i7q,,20470895,BLIND,6070227,Intro Experiment: General explanations,complete,,,computer,Desktop or Laptop,Windows 10,Chrome 99.0.4844.51,1366x768,1366x768,Part 1 completed,Basic Experiment_Dutch_Acc1,9,Part 1 completed,,Accuracy_level_1,845.3999996185303,/task/320432/9/asset/truck.jpg,,,f,image-keyboard-response,65,199771,0.0-2.3-0.30,,1,1,3210,,,0.8765625,,,,test,,f
67,1647460717010,16/03/2022 19:58:37,1647460716847,1,16/03/2022 20:58:36,73265,15,task-2i7q,,20470895,BLIND,6070227,Intro Experiment: General explanations,complete,,,computer,Desktop or Laptop,Windows 10,Chrome 99.0.4844.51,1366x768,1366x768,Part 1 completed,Basic Experiment_Dutch_Acc1,9,Part 1 completed,,Accuracy_level_1,724.6999998092651,/task/320432/9/asset/purple.png,,, ,image-keyboard-response,66,203030,0.0-2.3-2.30,,,1,3240,1,1,0.8830769230769231,2.4294,,,test,, 
68,1647460720309,16/03/2022 19:58:40,1647460720132,1,16/03/2022 20:58:40,73265,15,task-2i7q,,20470895,BLIND,6070227,Intro Experiment: General explanations,complete,,,computer,Desktop or Laptop,Windows 10,Chrome 99.0.4844.51,1366x768,1366x768,Part 1 completed,Basic Experiment_Dutch_Acc1,9,Part 1 completed,,Accuracy_level_1,645.7999992370605,/task/320432/9/asset/house.jpg,,,f,image-keyboard-response,67,206314,0.0-2.3-0.31,,1,1,3270,,,0.8803030303030304,,,,test,,f
69,1647460723613,16/03/2022 19:58:43,1647460723447,1,16/03/2022 20:58:43,73265,15,task-2i7q,,20470895,BLIND,6070227,Intro Experiment: General explanations,complete,,,computer,Desktop or Laptop,Windows 10,Chrome 99.0.4844.51,1366x768,1366x768,Part 1 completed,Basic Experiment_Dutch_Acc1,9,Part 1 completed,,Accuracy_level_1,554,/task/320432/9/asset/purple.png,,, ,image-keyboard-response,68,209629,0.0-2.3-2.31,,,1,3300,1,1,0.8865671641791045,2.5394,,,test,, 
70,1647460726942,16/03/2022 19:58:46,1647460726790,1,16/03/2022 20:58:46,73265,15,task-2i7q,,20470895,BLIND,6070227,Intro Experiment: General explanations,complete,,,computer,Desktop or Laptop,Windows 10,Chrome 99.0.4844.51,1366x768,1366x768,Part 1 completed,Basic Experiment_Dutch_Acc1,9,Part 1 completed,,Accuracy_level_1,577,/task/320432/9/asset/key.jpg,,,j,image-keyboard-response,69,212972,0.0-2.4-0.32,,1,1,3330,,,0.8838235294117647,,,,test,,j
71,1647460730344,16/03/2022 19:58:50,1647460730180,1,16/03/2022 20:58:50,73265,15,task-2i7q,,20470895,BLIND,6070227,Intro Experiment: General explanations,complete,,,computer,Desktop or Laptop,Windows 10,Chrome 99.0.4844.51,1366x768,1366x768,Part 1 completed,Basic Experiment_Dutch_Acc1,9,Part 1 completed,,Accuracy_level_1,407.3999996185303,/task/320432/9/asset/purple.png,,, ,image-keyboard-response,70,216363,0.0-2.4-2.32,,,1,3360,1,1,0.889855072463768,2.6516166666666665,,,test,, 
72,1647460733747,16/03/2022 19:58:53,1647460733587,1,16/03/2022 20:58:53,73265,15,task-2i7q,,20470895,BLIND,6070227,Intro Experiment: General explanations,complete,,,computer,Desktop or Laptop,Windows 10,Chrome 99.0.4844.51,1366x768,1366x768,Part 1 completed,Basic Experiment_Dutch_Acc1,9,Part 1 completed,,Accuracy_level_1,863.5,/task/320432/9/asset/glass.jpg,,,j,image-keyboard-response,71,219769,0.0-2.4-0.33,,1,1,3390,,,0.8871428571428571,,,,test,,j
73,1647460737192,16/03/2022 19:58:57,1647460737031,1,16/03/2022 20:58:57,73265,15,task-2i7q,,20470895,BLIND,6070227,Intro Experiment: General explanations,complete,,,computer,Desktop or Laptop,Windows 10,Chrome 99.0.4844.51,1366x768,1366x768,Part 1 completed,Basic Experiment_Dutch_Acc1,9,Part 1 completed,,Accuracy_level_1,615.6000003814697,/task/320432/9/asset/purple.png,,, ,image-keyboard-response,72,223214,0.0-2.4-2.33,,,1,3420,1,1,0.8929577464788733,2.7658,,,test,, 
74,1647460740682,16/03/2022 19:59:00,1647460740521,1,16/03/2022 20:59:00,73265,15,task-2i7q,,20470895,BLIND,6070227,Intro Experiment: General explanations,complete,,,computer,Desktop or Laptop,Windows 10,Chrome 99.0.4844.51,1366x768,1366x768,Part 1 completed,Basic Experiment_Dutch_Acc1,9,Part 1 completed,,Accuracy_level_1,799.7000007629395,/task/320432/9/asset/truck.jpg,,,f,image-keyboard-response,73,226679,0.0-2.4-0.34,,1,1,3450,,,0.8902777777777777,,,,test,,f
75,1647460744177,16/03/2022 19:59:04,1647460744014,1,16/03/2022 20:59:04,73265,15,task-2i7q,,20470895,BLIND,6070227,Intro Experiment: General explanations,complete,,,computer,Desktop or Laptop,Windows 10,Chrome 99.0.4844.51,1366x768,1366x768,Part 1 completed,Basic Experiment_Dutch_Acc1,9,Part 1 completed,,Accuracy_level_1,633.3000001907349,/task/320432/9/asset/purple.png,,, ,image-keyboard-response,74,230196,0.0-2.4-2.34,,,1,3480,1,1,0.8958904109589042,2.8821666666666665,,,test,, 
76,1647460747696,16/03/2022 19:59:07,1647460747537,1,16/03/2022 20:59:07,73265,15,task-2i7q,,20470895,BLIND,6070227,Intro Experiment: General explanations,complete,,,computer,Desktop or Laptop,Windows 10,Chrome 99.0.4844.51,1366x768,1366x768,Part 1 completed,Basic Experiment_Dutch_Acc1,9,Part 1 completed,,Accuracy_level_1,699.3000001907349,/task/320432/9/asset/truck.jpg,,,f,image-keyboard-response,75,233720,0.0-2.4-0.35,,1,1,3510,,,0.8932432432432431,,,,test,,f
77,1647460751242,16/03/2022 19:59:11,1647460751089,1,16/03/2022 20:59:11,73265,15,task-2i7q,,20470895,BLIND,6070227,Intro Experiment: General explanations,complete,,,computer,Desktop or Laptop,Windows 10,Chrome 99.0.4844.51,1366x768,1366x768,Part 1 completed,Basic Experiment_Dutch_Acc1,9,Part 1 completed,,Accuracy_level_1,773.1999998092651,/task/320432/9/asset/purple.png,,, ,image-keyboard-response,76,237272,0.0-2.4-2.35,,,1,3540,1,1,0.8986666666666667,3.0001,,,test,, 
78,1647460754821,16/03/2022 19:59:14,1647460754669,1,16/03/2022 20:59:14,73265,15,task-2i7q,,20470895,BLIND,6070227,Intro Experiment: General explanations,complete,,,computer,Desktop or Laptop,Windows 10,Chrome 99.0.4844.51,1366x768,1366x768,Part 1 completed,Basic Experiment_Dutch_Acc1,9,Part 1 completed,,Accuracy_level_1,601.6999998092651,/task/320432/9/asset/house.jpg,,,f,image-keyboard-response,77,240850,0.0-2.4-0.36,,1,1,3570,,,0.8960526315789473,,,,test,,f
79,1647460758468,16/03/2022 19:59:18,1647460758303,1,16/03/2022 20:59:18,73265,15,task-2i7q,,20470895,BLIND,6070227,Intro Experiment: General explanations,complete,,,computer,Desktop or Laptop,Windows 10,Chrome 99.0.4844.51,1366x768,1366x768,Part 1 completed,Basic Experiment_Dutch_Acc1,9,Part 1 completed,,Accuracy_level_1,,/task/320432/9/asset/red.png,,,,image-keyboard-response,78,244484,0.0-2.4-2.36,,,1,3600,,1,0.9012987012987014,3.1203333333333334,,,test,,
80,1647460762116,16/03/2022 19:59:22,1647460761952,1,16/03/2022 20:59:21,73265,15,task-2i7q,,20470895,BLIND,6070227,Intro Experiment: General explanations,complete,,,computer,Desktop or Laptop,Windows 10,Chrome 99.0.4844.51,1366x768,1366x768,Part 1 completed,Basic Experiment_Dutch_Acc1,9,Part 1 completed,,Accuracy_level_1,619.6999998092651,/task/320432/9/asset/elephant.jpg,,,f,image-keyboard-response,79,248134,0.0-2.4-0.37,,1,1,3630,,,0.8987179487179486,,,,test,,f
81,1647460765789,16/03/2022 19:59:25,1647460765626,1,16/03/2022 20:59:25,73265,15,task-2i7q,,20470895,BLIND,6070227,Intro Experiment: General explanations,complete,,,computer,Desktop or Laptop,Windows 10,Chrome 99.0.4844.51,1366x768,1366x768,Part 1 completed,Basic Experiment_Dutch_Acc1,9,Part 1 completed,,Accuracy_level_1,,/task/320432/9/asset/blue.png,,,,image-keyboard-response,80,251809,0.0-2.4-2.37,,,1,3660,,1,0.9037974683544304,3.242383333333333,,,test,,
82,1647460769513,16/03/2022 19:59:29,1647460769358,1,16/03/2022 20:59:29,73265,15,task-2i7q,,20470895,BLIND,6070227,Intro Experiment: General explanations,complete,,,computer,Desktop or Laptop,Windows 10,Chrome 99.0.4844.51,1366x768,1366x768,Part 1 completed,Basic Experiment_Dutch_Acc1,9,Part 1 completed,,Accuracy_level_1,611.1000003814697,/task/320432/9/asset/truck.jpg,,,f,image-keyboard-response,81,255529,0.0-2.4-0.38,,1,1,3690,,,0.9012499999999999,,,,test,,f
83,1647460773267,16/03/2022 19:59:33,1647460773099,1,16/03/2022 20:59:33,73265,15,task-2i7q,,20470895,BLIND,6070227,Intro Experiment: General explanations,complete,,,computer,Desktop or Laptop,Windows 10,Chrome 99.0.4844.51,1366x768,1366x768,Part 1 completed,Basic Experiment_Dutch_Acc1,9,Part 1 completed,,Accuracy_level_1,590.1999998092651,/task/320432/9/asset/blue.png,,, ,image-keyboard-response,82,259281,0.0-2.4-2.38,,,1,3720,1,1,0.9061728395061729,3.3669333333333333,,,test,, 
84,1647460777045,16/03/2022 19:59:37,1647460776881,1,16/03/2022 20:59:36,73265,15,task-2i7q,,20470895,BLIND,6070227,Intro Experiment: General explanations,complete,,,computer,Desktop or Laptop,Windows 10,Chrome 99.0.4844.51,1366x768,1366x768,Part 1 completed,Basic Experiment_Dutch_Acc1,9,Part 1 completed,,Accuracy_level_1,827.3999996185303,/task/320432/9/asset/truck.jpg,,,f,image-keyboard-response,83,263046,0.0-2.4-0.39,,1,1,3750,,,0.9036585365853658,,,,test,,f
85,1647460780837,16/03/2022 19:59:40,1647460780674,1,16/03/2022 20:59:40,73265,15,task-2i7q,,20470895,BLIND,6070227,Intro Experiment: General explanations,complete,,,computer,Desktop or Laptop,Windows 10,Chrome 99.0.4844.51,1366x768,1366x768,Part 1 completed,Basic Experiment_Dutch_Acc1,9,Part 1 completed,,Accuracy_level_1,620.8999996185303,/task/320432/9/asset/blue.png,,, ,image-keyboard-response,84,266856,0.0-2.4-2.39,,,1,3780,1,1,0.9084337349397591,3.4931833333333335,,,test,, 
86,1647460784644,16/03/2022 19:59:44,1647460784495,1,16/03/2022 20:59:44,73265,15,task-2i7q,,20470895,BLIND,6070227,Intro Experiment: General explanations,complete,,,computer,Desktop or Laptop,Windows 10,Chrome 99.0.4844.51,1366x768,1366x768,Part 1 completed,Basic Experiment_Dutch_Acc1,9,Part 1 completed,,Accuracy_level_1,1096.7999992370605,/task/320432/9/asset/comb.jpg,,,j,image-keyboard-response,85,270677,0.0-2.5-0.40,,1,1,3810,,,0.9059523809523808,,,,test,,j
87,1647460788510,16/03/2022 19:59:48,1647460788350,1,16/03/2022 20:59:48,73265,15,task-2i7q,,20470895,BLIND,6070227,Intro Experiment: General explanations,complete,,,computer,Desktop or Laptop,Windows 10,Chrome 99.0.4844.51,1366x768,1366x768,Part 1 completed,Basic Experiment_Dutch_Acc1,9,Part 1 completed,,Accuracy_level_1,,/task/320432/9/asset/pink.png,,,,image-keyboard-response,86,274532,0.0-2.5-2.40,,,1,3840,,1,0.9105882352941177,3.6211166666666665,,,test,,
88,1647460792392,16/03/2022 19:59:52,1647460792229,1,16/03/2022 20:59:52,73265,15,task-2i7q,,20470895,BLIND,6070227,Intro Experiment: General explanations,complete,,,computer,Desktop or Laptop,Windows 10,Chrome 99.0.4844.51,1366x768,1366x768,Part 1 completed,Basic Experiment_Dutch_Acc1,9,Part 1 completed,,Accuracy_level_1,665.8999996185303,/task/320432/9/asset/elephant.jpg,,,f,image-keyboard-response,87,278411,0.0-2.5-0.41,,1,1,3870,,,0.9081395348837209,,,,test,,f
89,1647460796889,16/03/2022 19:59:56,1647460796162,1,16/03/2022 20:59:56,73265,15,task-2i7q,,20470895,BLIND,6070227,Intro Experiment: General explanations,complete,,,computer,Desktop or Laptop,Windows 10,Chrome 99.0.4844.51,1366x768,1366x768,Part 1 completed,Basic Experiment_Dutch_Acc1,9,Part 1 completed,,Accuracy_level_1,469.4000005722046,/task/320432/9/asset/pink.png,,, ,image-keyboard-response,88,282344,0.0-2.5-2.41,,,1,3900,1,1,0.9126436781609196,3.751316666666667,,,test,, 
90,1647460800259,16/03/2022 20:00:00,1647460800104,1,16/03/2022 21:00:00,73265,15,task-2i7q,,20470895,BLIND,6070227,Intro Experiment: General explanations,complete,,,computer,Desktop or Laptop,Windows 10,Chrome 99.0.4844.51,1366x768,1366x768,Part 1 completed,Basic Experiment_Dutch_Acc1,9,Part 1 completed,,Accuracy_level_1,517.8999996185303,/task/320432/9/asset/comb.jpg,,,j,image-keyboard-response,89,286287,0.0-2.5-0.42,,1,1,3930,,,0.9102272727272727,,,,test,,j
91,1647460804246,16/03/2022 20:00:04,1647460804079,1,16/03/2022 21:00:04,73265,15,task-2i7q,,20470895,BLIND,6070227,Intro Experiment: General explanations,complete,,,computer,Desktop or Laptop,Windows 10,Chrome 99.0.4844.51,1366x768,1366x768,Part 1 completed,Basic Experiment_Dutch_Acc1,9,Part 1 completed,,Accuracy_level_1,,/task/320432/9/asset/red.png,,,,image-keyboard-response,90,290261,0.0-2.5-2.42,,,1,3960,,1,0.9146067415730338,3.8832666666666666,,,test,,
92,1647460808241,16/03/2022 20:00:08,1647460808078,1,16/03/2022 21:00:08,73265,15,task-2i7q,,20470895,BLIND,6070227,Intro Experiment: General explanations,complete,,,computer,Desktop or Laptop,Windows 10,Chrome 99.0.4844.51,1366x768,1366x768,Part 1 completed,Basic Experiment_Dutch_Acc1,9,Part 1 completed,,Accuracy_level_1,786.1000003814697,/task/320432/9/asset/house.jpg,,,f,image-keyboard-response,91,294260,0.0-2.5-0.43,,1,1,3990,,,0.9122222222222222,,,,test,,f
93,1647460812267,16/03/2022 20:00:12,1647460812110,1,16/03/2022 21:00:12,73265,15,task-2i7q,,20470895,BLIND,6070227,Intro Experiment: General explanations,complete,,,computer,Desktop or Laptop,Windows 10,Chrome 99.0.4844.51,1366x768,1366x768,Part 1 completed,Basic Experiment_Dutch_Acc1,9,Part 1 completed,,Accuracy_level_1,833.6999998092651,/task/320432/9/asset/red.png,,, ,image-keyboard-response,92,298293,0.0-2.5-2.43,,,1,4020,1,1,0.9164835164835166,4.0171166666666664,,,test,, 
94,1647460816363,16/03/2022 20:00:16,1647460816187,1,16/03/2022 21:00:16,73265,15,task-2i7q,,20470895,BLIND,6070227,Intro Experiment: General explanations,complete,,,computer,Desktop or Laptop,Windows 10,Chrome 99.0.4844.51,1366x768,1366x768,Part 1 completed,Basic Experiment_Dutch_Acc1,9,Part 1 completed,,Accuracy_level_1,509.29999923706055,/task/320432/9/asset/comb.jpg,,,j,image-keyboard-response,93,302369,0.0-2.5-0.44,,1,1,4050,,,0.9141304347826086,,,,test,,j
95,1647460820466,16/03/2022 20:00:20,1647460820303,1,16/03/2022 21:00:20,73265,15,task-2i7q,,20470895,BLIND,6070227,Intro Experiment: General explanations,complete,,,computer,Desktop or Laptop,Windows 10,Chrome 99.0.4844.51,1366x768,1366x768,Part 1 completed,Basic Experiment_Dutch_Acc1,9,Part 1 completed,,Accuracy_level_1,440.3999996185303,/task/320432/9/asset/red.png,,, ,image-keyboard-response,94,306485,0.0-2.5-2.44,,,1,4080,1,1,0.9182795698924732,4.153666666666667,,,test,, 
96,1647460824593,16/03/2022 20:00:24,1647460824426,1,16/03/2022 21:00:24,73265,15,task-2i7q,,20470895,BLIND,6070227,Intro Experiment: General explanations,complete,,,computer,Desktop or Laptop,Windows 10,Chrome 99.0.4844.51,1366x768,1366x768,Part 1 completed,Basic Experiment_Dutch_Acc1,9,Part 1 completed,,Accuracy_level_1,511.6000003814697,/task/320432/9/asset/truck.jpg,,,f,image-keyboard-response,95,310608,0.0-2.5-0.45,,1,1,4110,,,0.9159574468085105,,,,test,,f
97,1647460828723,16/03/2022 20:00:28,1647460828574,1,16/03/2022 21:00:28,73265,15,task-2i7q,,20470895,BLIND,6070227,Intro Experiment: General explanations,complete,,,computer,Desktop or Laptop,Windows 10,Chrome 99.0.4844.51,1366x768,1366x768,Part 1 completed,Basic Experiment_Dutch_Acc1,9,Part 1 completed,,Accuracy_level_1,457.1000003814697,/task/320432/9/asset/red.png,,, ,image-keyboard-response,96,314756,0.0-2.5-2.45,,,1,4140,1,1,0.92,4.291516666666666,,,test,, 
98,1647460832909,16/03/2022 20:00:32,1647460832754,1,16/03/2022 21:00:32,73265,15,task-2i7q,,20470895,BLIND,6070227,Intro Experiment: General explanations,complete,,,computer,Desktop or Laptop,Windows 10,Chrome 99.0.4844.51,1366x768,1366x768,Part 1 completed,Basic Experiment_Dutch_Acc1,9,Part 1 completed,,Accuracy_level_1,660.6000003814697,/task/320432/9/asset/key.jpg,,,j,image-keyboard-response,97,318936,0.0-2.5-0.46,,1,1,4170,,,0.9177083333333332,,,,test,,j
99,1647460837140,16/03/2022 20:00:37,1647460836985,1,16/03/2022 21:00:36,73265,15,task-2i7q,,20470895,BLIND,6070227,Intro Experiment: General explanations,complete,,,computer,Desktop or Laptop,Windows 10,Chrome 99.0.4844.51,1366x768,1366x768,Part 1 completed,Basic Experiment_Dutch_Acc1,9,Part 1 completed,,Accuracy_level_1,1686.6000003814697,/task/320432/9/asset/red.png,,, ,image-keyboard-response,98,323168,0.0-2.5-2.46,,,1,4200,1,1,0.9216494845360825,4.4317,,,test,, 
