Event Index,UTC Timestamp,UTC Date,Local Timestamp,Local Timezone,Local Date,Experiment ID,Experiment Version,Tree Node Key,Repeat Key,Schedule ID,Participant Public ID,Participant Private ID,Participant Starting Group,Participant Status,Participant Completion Code,Participant External Session ID,Participant Device Type,Participant Device,Participant OS,Participant Browser,Participant Monitor Size,Participant Viewport Size,Checkpoint,Task Name,Task Version,checkpoint-yiku,checkpoint-gn26,randomiser-2vg5,Reaction Time,Stimulus,Key Press,Test Part,Correct Response,Trial Type,Trial Index,Time Elapsed,Internal Node ID,Correct,match,phase,correct_resp,prop_correct,accuracy_color_trial,minutes
1,1644855266527,14/02/2022 16:14:26,1644855266413,1,14/02/2022 17:14:26,73265,15,task-yesg,,19433832,BLIND,5767766,Intro Experiment: General explanations,complete,,,computer,Desktop or Laptop,Mac OS 10.15.7,Safari 15.1,1440x900,1440x820,Part 1 completed,Pics_Only_Dutch,5,Part 1 completed,,Accuracy_level_1,34864.00000000001,,,,,instructions,0,34867,0.0-0.0,,,,,,,
2,1644855266650,14/02/2022 16:14:26,1644855266523,1,14/02/2022 17:14:26,73265,15,task-yesg,,19433832,BLIND,5767766,Intro Experiment: General explanations,complete,,,computer,Desktop or Laptop,Mac OS 10.15.7,Safari 15.1,1440x900,1440x820,Part 1 completed,Pics_Only_Dutch,5,Part 1 completed,,Accuracy_level_1,,"<div style=""font-size:60px;"">  </div>",,,,html-keyboard-response,1,34978,0.0-1.0-0.0,,,,,,,
3,1644855268134,14/02/2022 16:14:28,1644855268030,1,14/02/2022 17:14:28,73265,15,task-yesg,,19433832,BLIND,5767766,Intro Experiment: General explanations,complete,,,computer,Desktop or Laptop,Mac OS 10.15.7,Safari 15.1,1440x900,1440x820,Part 1 completed,Pics_Only_Dutch,5,Part 1 completed,,Accuracy_level_1,,/task/320041/5/asset/plane.jpg,,,f,image-keyboard-response,2,36484,0.0-1.0-1.0,,,test,,0,,0.02695
4,1644855268260,14/02/2022 16:14:28,1644855268137,1,14/02/2022 17:14:28,73265,15,task-yesg,,19433832,BLIND,5767766,Intro Experiment: General explanations,complete,,,computer,Desktop or Laptop,Mac OS 10.15.7,Safari 15.1,1440x900,1440x820,Part 1 completed,Pics_Only_Dutch,5,Part 1 completed,,Accuracy_level_1,,"<div style=""font-size:60px;"">  </div>",,,,html-keyboard-response,3,36591,0.0-1.0-0.1,,,,,,,
5,1644855269714,14/02/2022 16:14:29,1644855269641,1,14/02/2022 17:14:29,73265,15,task-yesg,,19433832,BLIND,5767766,Intro Experiment: General explanations,complete,,,computer,Desktop or Laptop,Mac OS 10.15.7,Safari 15.1,1440x900,1440x820,Part 1 completed,Pics_Only_Dutch,5,Part 1 completed,,Accuracy_level_1,628,/task/320041/5/asset/truck.jpg,,,f,image-keyboard-response,4,38096,0.0-1.0-1.1,,,test,,-0.35,,0.0538
6,1644855269823,14/02/2022 16:14:29,1644855269748,1,14/02/2022 17:14:29,73265,15,task-yesg,,19433832,BLIND,5767766,Intro Experiment: General explanations,complete,,,computer,Desktop or Laptop,Mac OS 10.15.7,Safari 15.1,1440x900,1440x820,Part 1 completed,Pics_Only_Dutch,5,Part 1 completed,,Accuracy_level_1,,"<div style=""font-size:60px;"">  </div>",,,,html-keyboard-response,5,38203,0.0-1.1-0.2,,,,,,,
7,1644855271338,14/02/2022 16:14:31,1644855271261,1,14/02/2022 17:14:31,73265,15,task-yesg,,19433832,BLIND,5767766,Intro Experiment: General explanations,complete,,,computer,Desktop or Laptop,Mac OS 10.15.7,Safari 15.1,1440x900,1440x820,Part 1 completed,Pics_Only_Dutch,5,Part 1 completed,,Accuracy_level_1,638,/task/320041/5/asset/plane.jpg,,,f,image-keyboard-response,6,39716,0.0-1.1-1.2,,,test,,,,0.0808
8,1644855271449,14/02/2022 16:14:31,1644855271368,1,14/02/2022 17:14:31,73265,15,task-yesg,,19433832,BLIND,5767766,Intro Experiment: General explanations,complete,,,computer,Desktop or Laptop,Mac OS 10.15.7,Safari 15.1,1440x900,1440x820,Part 1 completed,Pics_Only_Dutch,5,Part 1 completed,,Accuracy_level_1,,"<div style=""font-size:60px;"">  </div>",,,,html-keyboard-response,7,39823,0.0-1.1-0.3,,,,,,,
9,1644855272932,14/02/2022 16:14:32,1644855272875,1,14/02/2022 17:14:32,73265,15,task-yesg,,19433832,BLIND,5767766,Intro Experiment: General explanations,complete,,,computer,Desktop or Laptop,Mac OS 10.15.7,Safari 15.1,1440x900,1440x820,Part 1 completed,Pics_Only_Dutch,5,Part 1 completed,,Accuracy_level_1,481.0000000000073,/task/320041/5/asset/plane.jpg,,,f,image-keyboard-response,8,41329,0.0-1.1-1.3,,,test,,1.05,,0.1077
10,1644855273028,14/02/2022 16:14:33,1644855272981,1,14/02/2022 17:14:32,73265,15,task-yesg,,19433832,BLIND,5767766,Intro Experiment: General explanations,complete,,,computer,Desktop or Laptop,Mac OS 10.15.7,Safari 15.1,1440x900,1440x820,Part 1 completed,Pics_Only_Dutch,5,Part 1 completed,,Accuracy_level_1,,"<div style=""font-size:60px;"">  </div>",,,,html-keyboard-response,9,41436,0.0-1.2-0.4,,,,,,,
11,1644855274561,14/02/2022 16:14:34,1644855274487,1,14/02/2022 17:14:34,73265,15,task-yesg,,19433832,BLIND,5767766,Intro Experiment: General explanations,complete,,,computer,Desktop or Laptop,Mac OS 10.15.7,Safari 15.1,1440x900,1440x820,Part 1 completed,Pics_Only_Dutch,5,Part 1 completed,,Accuracy_level_1,,/task/320041/5/asset/plane.jpg,,,f,image-keyboard-response,10,42942,0.0-1.2-1.4,,,test,,0.525,,0.13456666666666667
12,1644855274762,14/02/2022 16:14:34,1644855274693,1,14/02/2022 17:14:34,73265,15,task-yesg,,19433832,BLIND,5767766,Intro Experiment: General explanations,complete,,,computer,Desktop or Laptop,Mac OS 10.15.7,Safari 15.1,1440x900,1440x820,Part 1 completed,Pics_Only_Dutch,5,Part 1 completed,,Accuracy_level_1,,"<span style=""color:red;font-size:50px;font-weight: bold;"">FOUT!</span>",,,,html-keyboard-response,11,43148,0.0-1.2-2.4-0.4,,,,,,,
13,1644855274858,14/02/2022 16:14:34,1644855274798,1,14/02/2022 17:14:34,73265,15,task-yesg,,19433832,BLIND,5767766,Intro Experiment: General explanations,complete,,,computer,Desktop or Laptop,Mac OS 10.15.7,Safari 15.1,1440x900,1440x820,Part 1 completed,Pics_Only_Dutch,5,Part 1 completed,,Accuracy_level_1,,"<div style=""font-size:60px;"">  </div>",,,,html-keyboard-response,12,43253,0.0-1.2-0.5,,,,,,,
14,1644855276373,14/02/2022 16:14:36,1644855276305,1,14/02/2022 17:14:36,73265,15,task-yesg,,19433832,BLIND,5767766,Intro Experiment: General explanations,complete,,,computer,Desktop or Laptop,Mac OS 10.15.7,Safari 15.1,1440x900,1440x820,Part 1 completed,Pics_Only_Dutch,5,Part 1 completed,,Accuracy_level_1,,/task/320041/5/asset/glass.jpg,,,j,image-keyboard-response,13,44759,0.0-1.2-1.5,,,test,,0.3,,0.16486666666666666
15,1644855276575,14/02/2022 16:14:36,1644855276510,1,14/02/2022 17:14:36,73265,15,task-yesg,,19433832,BLIND,5767766,Intro Experiment: General explanations,complete,,,computer,Desktop or Laptop,Mac OS 10.15.7,Safari 15.1,1440x900,1440x820,Part 1 completed,Pics_Only_Dutch,5,Part 1 completed,,Accuracy_level_1,,"<span style=""color:red;font-size:50px;font-weight: bold;"">FOUT!</span>",,,,html-keyboard-response,14,44965,0.0-1.2-2.5-0.5,,,,,,,
16,1644855276670,14/02/2022 16:14:36,1644855276615,1,14/02/2022 17:14:36,73265,15,task-yesg,,19433832,BLIND,5767766,Intro Experiment: General explanations,complete,,,computer,Desktop or Laptop,Mac OS 10.15.7,Safari 15.1,1440x900,1440x820,Part 1 completed,Pics_Only_Dutch,5,Part 1 completed,,Accuracy_level_1,,"<div style=""font-size:60px;"">  </div>",,,,html-keyboard-response,15,45070,0.0-1.3-0.6,,,,,,,
17,1644855279817,14/02/2022 16:14:39,1644855277652,1,14/02/2022 17:14:37,73265,15,task-yesg,,19433832,BLIND,5767766,Intro Experiment: General explanations,complete,,,computer,Desktop or Laptop,Mac OS 10.15.7,Safari 15.1,1440x900,1440x820,Part 1 completed,Pics_Only_Dutch,5,Part 1 completed,,Accuracy_level_1,689,/task/320041/5/asset/glass.jpg,,,j,image-keyboard-response,18,46107,0.0-1.3-1.7,,,test,,0.2916666666666667,,0.18731666666666666
18,1644855279903,14/02/2022 16:14:39,1644855277758,1,14/02/2022 17:14:37,73265,15,task-yesg,,19433832,BLIND,5767766,Intro Experiment: General explanations,complete,,,computer,Desktop or Laptop,Mac OS 10.15.7,Safari 15.1,1440x900,1440x820,Part 1 completed,Pics_Only_Dutch,5,Part 1 completed,,Accuracy_level_1,,"<div style=""font-size:60px;"">  </div>",,,,html-keyboard-response,19,46213,0.0-1.4-0.8,,,,,,,
19,1644855278188,14/02/2022 16:14:38,1644855278122,1,14/02/2022 17:14:38,73265,15,task-yesg,,19433832,BLIND,5767766,Intro Experiment: General explanations,complete,,,computer,Desktop or Laptop,Mac OS 10.15.7,Safari 15.1,1440x900,1440x820,Part 1 completed,Pics_Only_Dutch,5,Part 1 completed,,Accuracy_level_1,688,/task/320041/5/asset/plane.jpg,,,f,image-keyboard-response,16,46576,0.0-1.3-1.6,,,test,,0.27999999999999997,,0.19515
20,1644855278278,14/02/2022 16:14:38,1644855278228,1,14/02/2022 17:14:38,73265,15,task-yesg,,19433832,BLIND,5767766,Intro Experiment: General explanations,complete,,,computer,Desktop or Laptop,Mac OS 10.15.7,Safari 15.1,1440x900,1440x820,Part 1 completed,Pics_Only_Dutch,5,Part 1 completed,,Accuracy_level_1,,"<div style=""font-size:60px;"">  </div>",,,,html-keyboard-response,17,46682,0.0-1.3-0.7,,,,,,,
21,1644855281426,14/02/2022 16:14:41,1644855279264,1,14/02/2022 17:14:39,73265,15,task-yesg,,19433832,BLIND,5767766,Intro Experiment: General explanations,complete,,,computer,Desktop or Laptop,Mac OS 10.15.7,Safari 15.1,1440x900,1440x820,Part 1 completed,Pics_Only_Dutch,5,Part 1 completed,,Accuracy_level_1,,/task/320041/5/asset/key.png,,,j,image-keyboard-response,20,47719,0.0-1.4-1.8,,,test,,0.25,,0.21418333333333334
22,1644855281606,14/02/2022 16:14:41,1644855279471,1,14/02/2022 17:14:39,73265,15,task-yesg,,19433832,BLIND,5767766,Intro Experiment: General explanations,complete,,,computer,Desktop or Laptop,Mac OS 10.15.7,Safari 15.1,1440x900,1440x820,Part 1 completed,Pics_Only_Dutch,5,Part 1 completed,,Accuracy_level_1,,"<span style=""color:red;font-size:50px;font-weight: bold;"">FOUT!</span>",,,,html-keyboard-response,21,47925,0.0-1.4-2.8-0.8,,,,,,,
23,1644855281731,14/02/2022 16:14:41,1644855279577,1,14/02/2022 17:14:39,73265,15,task-yesg,,19433832,BLIND,5767766,Intro Experiment: General explanations,complete,,,computer,Desktop or Laptop,Mac OS 10.15.7,Safari 15.1,1440x900,1440x820,Part 1 completed,Pics_Only_Dutch,5,Part 1 completed,,Accuracy_level_1,,"<div style=""font-size:60px;"">  </div>",,,,html-keyboard-response,22,48031,0.0-1.4-0.9,,,,,,,
24,1644855283231,14/02/2022 16:14:43,1644855281083,1,14/02/2022 17:14:41,73265,15,task-yesg,,19433832,BLIND,5767766,Intro Experiment: General explanations,complete,,,computer,Desktop or Laptop,Mac OS 10.15.7,Safari 15.1,1440x900,1440x820,Part 1 completed,Pics_Only_Dutch,5,Part 1 completed,,Accuracy_level_1,1173.0000000000073,/task/320041/5/asset/comb.jpg,,,j,image-keyboard-response,23,49538,0.0-1.4-1.9,,,test,,0.24705882352941178,,0.2445
1,1644855940139,14/02/2022 16:25:40,1644855939034,1,14/02/2022 17:25:39,73265,15,task-yesg,,19434241,BLIND,5767874,Intro Experiment: General explanations,complete,,,computer,Desktop or Laptop,Windows 10,Chrome 98.0.4758.82,1536x864,1536x714,Part 1 completed,Pics_Only_Dutch,5,Part 1 completed,,Accuracy_level_1,48904.10000000056,,,,,instructions,0,48910,0.0-0.0,,,,,,,
2,1644855940326,14/02/2022 16:25:40,1644855939153,1,14/02/2022 17:25:39,73265,15,task-yesg,,19434241,BLIND,5767874,Intro Experiment: General explanations,complete,,,computer,Desktop or Laptop,Windows 10,Chrome 98.0.4758.82,1536x864,1536x714,Part 1 completed,Pics_Only_Dutch,5,Part 1 completed,,Accuracy_level_1,,"<div style=""font-size:60px;"">  </div>",,,,html-keyboard-response,1,49030,0.0-1.0-0.0,,,,,,,
3,1644855941706,14/02/2022 16:25:41,1644855940672,1,14/02/2022 17:25:40,73265,15,task-yesg,,19434241,BLIND,5767874,Intro Experiment: General explanations,complete,,,computer,Desktop or Laptop,Windows 10,Chrome 98.0.4758.82,1536x864,1536x714,Part 1 completed,Pics_Only_Dutch,5,Part 1 completed,,Accuracy_level_1,,/task/320041/5/asset/truck.jpg,,,f,image-keyboard-response,2,50548,0.0-1.0-1.0,,,test,,0,,0.0273
4,1644855941815,14/02/2022 16:25:41,1644855940776,1,14/02/2022 17:25:40,73265,15,task-yesg,,19434241,BLIND,5767874,Intro Experiment: General explanations,complete,,,computer,Desktop or Laptop,Windows 10,Chrome 98.0.4758.82,1536x864,1536x714,Part 1 completed,Pics_Only_Dutch,5,Part 1 completed,,Accuracy_level_1,,"<div style=""font-size:60px;"">  </div>",,,,html-keyboard-response,3,50653,0.0-1.0-0.1,,,,,,,
5,1644855943310,14/02/2022 16:25:43,1644855942279,1,14/02/2022 17:25:42,73265,15,task-yesg,,19434241,BLIND,5767874,Intro Experiment: General explanations,complete,,,computer,Desktop or Laptop,Windows 10,Chrome 98.0.4758.82,1536x864,1536x714,Part 1 completed,Pics_Only_Dutch,5,Part 1 completed,,Accuracy_level_1,850,/task/320041/5/asset/glass.jpg,,,j,image-keyboard-response,4,52156,0.0-1.0-1.1,,,test,,-0.35,,0.05408333333333333
6,1644855943483,14/02/2022 16:25:43,1644855942386,1,14/02/2022 17:25:42,73265,15,task-yesg,,19434241,BLIND,5767874,Intro Experiment: General explanations,complete,,,computer,Desktop or Laptop,Windows 10,Chrome 98.0.4758.82,1536x864,1536x714,Part 1 completed,Pics_Only_Dutch,5,Part 1 completed,,Accuracy_level_1,,"<div style=""font-size:60px;"">  </div>",,,,html-keyboard-response,5,52263,0.0-1.1-0.2,,,,,,,
7,1644855944935,14/02/2022 16:25:44,1644855943894,1,14/02/2022 17:25:43,73265,15,task-yesg,,19434241,BLIND,5767874,Intro Experiment: General explanations,complete,,,computer,Desktop or Laptop,Windows 10,Chrome 98.0.4758.82,1536x864,1536x714,Part 1 completed,Pics_Only_Dutch,5,Part 1 completed,,Accuracy_level_1,519.1999999992549,/task/320041/5/asset/truck.jpg,,,f,image-keyboard-response,6,53771,0.0-1.1-1.2,,,test,,,,0.081
8,1644855945018,14/02/2022 16:25:45,1644855944005,1,14/02/2022 17:25:44,73265,15,task-yesg,,19434241,BLIND,5767874,Intro Experiment: General explanations,complete,,,computer,Desktop or Laptop,Windows 10,Chrome 98.0.4758.82,1536x864,1536x714,Part 1 completed,Pics_Only_Dutch,5,Part 1 completed,,Accuracy_level_1,,"<div style=""font-size:60px;"">  </div>",,,,html-keyboard-response,7,53881,0.0-1.1-0.3,,,,,,,
9,1644855946531,14/02/2022 16:25:46,1644855945510,1,14/02/2022 17:25:45,73265,15,task-yesg,,19434241,BLIND,5767874,Intro Experiment: General explanations,complete,,,computer,Desktop or Laptop,Windows 10,Chrome 98.0.4758.82,1536x864,1536x714,Part 1 completed,Pics_Only_Dutch,5,Part 1 completed,,Accuracy_level_1,425.70000000018626,/task/320041/5/asset/truck.jpg,,,f,image-keyboard-response,8,55387,0.0-1.1-1.3,,,test,,1.05,,0.10793333333333334
10,1644855946640,14/02/2022 16:25:46,1644855945613,1,14/02/2022 17:25:45,73265,15,task-yesg,,19434241,BLIND,5767874,Intro Experiment: General explanations,complete,,,computer,Desktop or Laptop,Windows 10,Chrome 98.0.4758.82,1536x864,1536x714,Part 1 completed,Pics_Only_Dutch,5,Part 1 completed,,Accuracy_level_1,,"<div style=""font-size:60px;"">  </div>",,,,html-keyboard-response,9,55490,0.0-1.2-0.4,,,,,,,
11,1644855948143,14/02/2022 16:25:48,1644855947122,1,14/02/2022 17:25:47,73265,15,task-yesg,,19434241,BLIND,5767874,Intro Experiment: General explanations,complete,,,computer,Desktop or Laptop,Windows 10,Chrome 98.0.4758.82,1536x864,1536x714,Part 1 completed,Pics_Only_Dutch,5,Part 1 completed,,Accuracy_level_1,433.40000000037253,/task/320041/5/asset/glass.jpg,,,j,image-keyboard-response,10,56999,0.0-1.2-1.4,,,test,,0.7,,0.1348
12,1644855948252,14/02/2022 16:25:48,1644855947227,1,14/02/2022 17:25:47,73265,15,task-yesg,,19434241,BLIND,5767874,Intro Experiment: General explanations,complete,,,computer,Desktop or Laptop,Windows 10,Chrome 98.0.4758.82,1536x864,1536x714,Part 1 completed,Pics_Only_Dutch,5,Part 1 completed,,Accuracy_level_1,,"<div style=""font-size:60px;"">  </div>",,,,html-keyboard-response,11,57104,0.0-1.2-0.5,,,,,,,
13,1644855949769,14/02/2022 16:25:49,1644855948739,1,14/02/2022 17:25:48,73265,15,task-yesg,,19434241,BLIND,5767874,Intro Experiment: General explanations,complete,,,computer,Desktop or Laptop,Windows 10,Chrome 98.0.4758.82,1536x864,1536x714,Part 1 completed,Pics_Only_Dutch,5,Part 1 completed,,Accuracy_level_1,,/task/320041/5/asset/plane.jpg,,,f,image-keyboard-response,12,58616,0.0-1.2-1.5,,,test,,0.4666666666666666,,0.16175
14,1644855949972,14/02/2022 16:25:49,1644855948950,1,14/02/2022 17:25:48,73265,15,task-yesg,,19434241,BLIND,5767874,Intro Experiment: General explanations,complete,,,computer,Desktop or Laptop,Windows 10,Chrome 98.0.4758.82,1536x864,1536x714,Part 1 completed,Pics_Only_Dutch,5,Part 1 completed,,Accuracy_level_1,,"<span style=""color:red;font-size:50px;font-weight: bold;"">FOUT!</span>",,,,html-keyboard-response,13,58826,0.0-1.2-2.5-0.5,,,,,,,
15,1644855950112,14/02/2022 16:25:50,1644855949057,1,14/02/2022 17:25:49,73265,15,task-yesg,,19434241,BLIND,5767874,Intro Experiment: General explanations,complete,,,computer,Desktop or Laptop,Windows 10,Chrome 98.0.4758.82,1536x864,1536x714,Part 1 completed,Pics_Only_Dutch,5,Part 1 completed,,Accuracy_level_1,,"<div style=""font-size:60px;"">  </div>",,,,html-keyboard-response,14,58933,0.0-1.3-0.6,,,,,,,
16,1644855951581,14/02/2022 16:25:51,1644855950561,1,14/02/2022 17:25:50,73265,15,task-yesg,,19434241,BLIND,5767874,Intro Experiment: General explanations,complete,,,computer,Desktop or Laptop,Windows 10,Chrome 98.0.4758.82,1536x864,1536x714,Part 1 completed,Pics_Only_Dutch,5,Part 1 completed,,Accuracy_level_1,,/task/320041/5/asset/truck.jpg,,,f,image-keyboard-response,15,60438,0.0-1.3-1.6,,,test,,0.3111111111111111,,0.19211666666666666
17,1644855951800,14/02/2022 16:25:51,1644855950767,1,14/02/2022 17:25:50,73265,15,task-yesg,,19434241,BLIND,5767874,Intro Experiment: General explanations,complete,,,computer,Desktop or Laptop,Windows 10,Chrome 98.0.4758.82,1536x864,1536x714,Part 1 completed,Pics_Only_Dutch,5,Part 1 completed,,Accuracy_level_1,,"<span style=""color:red;font-size:50px;font-weight: bold;"">FOUT!</span>",,,,html-keyboard-response,16,60644,0.0-1.3-2.6-0.6,,,,,,,
18,1644855951893,14/02/2022 16:25:51,1644855950876,1,14/02/2022 17:25:50,73265,15,task-yesg,,19434241,BLIND,5767874,Intro Experiment: General explanations,complete,,,computer,Desktop or Laptop,Windows 10,Chrome 98.0.4758.82,1536x864,1536x714,Part 1 completed,Pics_Only_Dutch,5,Part 1 completed,,Accuracy_level_1,,"<div style=""font-size:60px;"">  </div>",,,,html-keyboard-response,17,60753,0.0-1.3-0.7,,,,,,,
19,1644855953407,14/02/2022 16:25:53,1644855952383,1,14/02/2022 17:25:52,73265,15,task-yesg,,19434241,BLIND,5767874,Intro Experiment: General explanations,complete,,,computer,Desktop or Laptop,Windows 10,Chrome 98.0.4758.82,1536x864,1536x714,Part 1 completed,Pics_Only_Dutch,5,Part 1 completed,,Accuracy_level_1,,/task/320041/5/asset/pear.jpg,,,j,image-keyboard-response,18,62259,0.0-1.3-1.7,,,test,,0.2333333333333333,,0.22248333333333334
20,1644855953611,14/02/2022 16:25:53,1644855952585,1,14/02/2022 17:25:52,73265,15,task-yesg,,19434241,BLIND,5767874,Intro Experiment: General explanations,complete,,,computer,Desktop or Laptop,Windows 10,Chrome 98.0.4758.82,1536x864,1536x714,Part 1 completed,Pics_Only_Dutch,5,Part 1 completed,,Accuracy_level_1,,"<span style=""color:red;font-size:50px;font-weight: bold;"">FOUT!</span>",,,,html-keyboard-response,19,62462,0.0-1.3-2.7-0.7,,,,,,,
1,1646655073857,07/03/2022 12:11:13,1646655072464,1,07/03/2022 13:11:12,73265,15,task-yesg,,20139900,BLIND,5972302,Intro Experiment: General explanations,complete,,,computer,Desktop or Laptop,Windows 10,Chrome 98.0.4758.102,1366x768,1366x657,Part 1 completed,Pics_Only_Dutch,5,Part 1 completed,,Accuracy_level_1,41798.700000047684,,,,,instructions,0,41807,0.0-0.0,,,,,,,
2,1646655073934,07/03/2022 12:11:13,1646655072625,1,07/03/2022 13:11:12,73265,15,task-yesg,,20139900,BLIND,5972302,Intro Experiment: General explanations,complete,,,computer,Desktop or Laptop,Windows 10,Chrome 98.0.4758.102,1366x768,1366x657,Part 1 completed,Pics_Only_Dutch,5,Part 1 completed,,Accuracy_level_1,,"<div style=""font-size:60px;"">  </div>",,,,html-keyboard-response,1,41970,0.0-1.0-0.0,,,,,,,
3,1646655075590,07/03/2022 12:11:15,1646655074152,1,07/03/2022 13:11:14,73265,15,task-yesg,,20139900,BLIND,5972302,Intro Experiment: General explanations,complete,,,computer,Desktop or Laptop,Windows 10,Chrome 98.0.4758.102,1366x768,1366x657,Part 1 completed,Pics_Only_Dutch,5,Part 1 completed,,Accuracy_level_1,,/task/320041/5/asset/plane.jpg,,,f,image-keyboard-response,2,43496,0.0-1.0-1.0,,,test,,0,,0.02815
4,1646655075669,07/03/2022 12:11:15,1646655074267,1,07/03/2022 13:11:14,73265,15,task-yesg,,20139900,BLIND,5972302,Intro Experiment: General explanations,complete,,,computer,Desktop or Laptop,Windows 10,Chrome 98.0.4758.102,1366x768,1366x657,Part 1 completed,Pics_Only_Dutch,5,Part 1 completed,,Accuracy_level_1,,"<div style=""font-size:60px;"">  </div>",,,,html-keyboard-response,3,43611,0.0-1.0-0.1,,,,,,,
5,1646655077242,07/03/2022 12:11:17,1646655075772,1,07/03/2022 13:11:15,73265,15,task-yesg,,20139900,BLIND,5972302,Intro Experiment: General explanations,complete,,,computer,Desktop or Laptop,Windows 10,Chrome 98.0.4758.102,1366x768,1366x657,Part 1 completed,Pics_Only_Dutch,5,Part 1 completed,,Accuracy_level_1,,/task/320041/5/asset/key.png,,,j,image-keyboard-response,4,45116,0.0-1.0-1.1,,,test,,0,,0.05515
6,1646655077312,07/03/2022 12:11:17,1646655075880,1,07/03/2022 13:11:15,73265,15,task-yesg,,20139900,BLIND,5972302,Intro Experiment: General explanations,complete,,,computer,Desktop or Laptop,Windows 10,Chrome 98.0.4758.102,1366x768,1366x657,Part 1 completed,Pics_Only_Dutch,5,Part 1 completed,,Accuracy_level_1,,"<div style=""font-size:60px;"">  </div>",,,,html-keyboard-response,5,45225,0.0-1.1-0.2,,,,,,,
7,1646655078692,07/03/2022 12:11:18,1646655077384,1,07/03/2022 13:11:17,73265,15,task-yesg,,20139900,BLIND,5972302,Intro Experiment: General explanations,complete,,,computer,Desktop or Laptop,Windows 10,Chrome 98.0.4758.102,1366x768,1366x657,Part 1 completed,Pics_Only_Dutch,5,Part 1 completed,,Accuracy_level_1,751.7999999523163,/task/320041/5/asset/glass.jpg,,,j,image-keyboard-response,6,46729,0.0-1.1-1.2,,,test,,,,0.08201666666666667
8,1646655078796,07/03/2022 12:11:18,1646655077492,1,07/03/2022 13:11:17,73265,15,task-yesg,,20139900,BLIND,5972302,Intro Experiment: General explanations,complete,,,computer,Desktop or Laptop,Windows 10,Chrome 98.0.4758.102,1366x768,1366x657,Part 1 completed,Pics_Only_Dutch,5,Part 1 completed,,Accuracy_level_1,,"<div style=""font-size:60px;"">  </div>",,,,html-keyboard-response,7,46836,0.0-1.1-0.3,,,,,,,
9,1646655080307,07/03/2022 12:11:20,1646655078999,1,07/03/2022 13:11:18,73265,15,task-yesg,,20139900,BLIND,5972302,Intro Experiment: General explanations,complete,,,computer,Desktop or Laptop,Windows 10,Chrome 98.0.4758.102,1366x768,1366x657,Part 1 completed,Pics_Only_Dutch,5,Part 1 completed,,Accuracy_level_1,739.3999998569489,/task/320041/5/asset/truck.jpg,,,f,image-keyboard-response,8,48343,0.0-1.1-1.3,,,test,,0.7,,0.10893333333333333
10,1646655080407,07/03/2022 12:11:20,1646655079113,1,07/03/2022 13:11:19,73265,15,task-yesg,,20139900,BLIND,5972302,Intro Experiment: General explanations,complete,,,computer,Desktop or Laptop,Windows 10,Chrome 98.0.4758.102,1366x768,1366x657,Part 1 completed,Pics_Only_Dutch,5,Part 1 completed,,Accuracy_level_1,,"<div style=""font-size:60px;"">  </div>",,,,html-keyboard-response,9,48458,0.0-1.2-0.4,,,,,,,
11,1646655081940,07/03/2022 12:11:21,1646655080623,1,07/03/2022 13:11:20,73265,15,task-yesg,,20139900,BLIND,5972302,Intro Experiment: General explanations,complete,,,computer,Desktop or Laptop,Windows 10,Chrome 98.0.4758.102,1366x768,1366x657,Part 1 completed,Pics_Only_Dutch,5,Part 1 completed,,Accuracy_level_1,605.3999998569489,/task/320041/5/asset/truck.jpg,,,f,image-keyboard-response,10,49967,0.0-1.2-1.4,,,test,,0.525,,0.136
12,1646655082032,07/03/2022 12:11:22,1646655080729,1,07/03/2022 13:11:20,73265,15,task-yesg,,20139900,BLIND,5972302,Intro Experiment: General explanations,complete,,,computer,Desktop or Laptop,Windows 10,Chrome 98.0.4758.102,1366x768,1366x657,Part 1 completed,Pics_Only_Dutch,5,Part 1 completed,,Accuracy_level_1,,"<div style=""font-size:60px;"">  </div>",,,,html-keyboard-response,11,50074,0.0-1.2-0.5,,,,,,,
13,1646655083549,07/03/2022 12:11:23,1646655082243,1,07/03/2022 13:11:22,73265,15,task-yesg,,20139900,BLIND,5972302,Intro Experiment: General explanations,complete,,,computer,Desktop or Laptop,Windows 10,Chrome 98.0.4758.102,1366x768,1366x657,Part 1 completed,Pics_Only_Dutch,5,Part 1 completed,,Accuracy_level_1,687.2999999523163,/task/320041/5/asset/house.jpg,,,f,image-keyboard-response,12,51587,0.0-1.2-1.5,,,test,,0.4666666666666666,,0.163
14,1646655083650,07/03/2022 12:11:23,1646655082352,1,07/03/2022 13:11:22,73265,15,task-yesg,,20139900,BLIND,5972302,Intro Experiment: General explanations,complete,,,computer,Desktop or Laptop,Windows 10,Chrome 98.0.4758.102,1366x768,1366x657,Part 1 completed,Pics_Only_Dutch,5,Part 1 completed,,Accuracy_level_1,,"<div style=""font-size:60px;"">  </div>",,,,html-keyboard-response,13,51696,0.0-1.3-0.6,,,,,,,
15,1646655085275,07/03/2022 12:11:25,1646655083859,1,07/03/2022 13:11:23,73265,15,task-yesg,,20139900,BLIND,5972302,Intro Experiment: General explanations,complete,,,computer,Desktop or Laptop,Windows 10,Chrome 98.0.4758.102,1366x768,1366x657,Part 1 completed,Pics_Only_Dutch,5,Part 1 completed,,Accuracy_level_1,778.5,/task/320041/5/asset/elephant.jpg,,,f,image-keyboard-response,14,53204,0.0-1.3-1.6,,,test,,0.4375,,0.18993333333333334
16,1646655085362,07/03/2022 12:11:25,1646655083973,1,07/03/2022 13:11:23,73265,15,task-yesg,,20139900,BLIND,5972302,Intro Experiment: General explanations,complete,,,computer,Desktop or Laptop,Windows 10,Chrome 98.0.4758.102,1366x768,1366x657,Part 1 completed,Pics_Only_Dutch,5,Part 1 completed,,Accuracy_level_1,,"<div style=""font-size:60px;"">  </div>",,,,html-keyboard-response,15,53318,0.0-1.3-0.7,,,,,,,
17,1646655086770,07/03/2022 12:11:26,1646655085479,1,07/03/2022 13:11:25,73265,15,task-yesg,,20139900,BLIND,5972302,Intro Experiment: General explanations,complete,,,computer,Desktop or Laptop,Windows 10,Chrome 98.0.4758.102,1366x768,1366x657,Part 1 completed,Pics_Only_Dutch,5,Part 1 completed,,Accuracy_level_1,886.5999999046326,/task/320041/5/asset/comb.jpg,,,j,image-keyboard-response,16,54823,0.0-1.3-1.7,,,test,,0.42000000000000004,,0.21693333333333334
1,1647012485164,11/03/2022 15:28:05,1647012485055,1,11/03/2022 16:28:05,73265,15,task-yesg,,20303958,BLIND,6022522,Intro Experiment: General explanations,complete,,,computer,Desktop or Laptop,Windows 10,Chrome 99.0.4844.51,1280x720,1280x577,Part 1 completed,Pics_Only_Dutch,5,Part 1 completed,,Accuracy_level_1,51744.40000000596,,,,,instructions,0,51748,0.0-0.0,,,,,,,
2,1647012485242,11/03/2022 15:28:05,1647012485174,1,11/03/2022 16:28:05,73265,15,task-yesg,,20303958,BLIND,6022522,Intro Experiment: General explanations,complete,,,computer,Desktop or Laptop,Windows 10,Chrome 99.0.4844.51,1280x720,1280x577,Part 1 completed,Pics_Only_Dutch,5,Part 1 completed,,Accuracy_level_1,,"<div style=""font-size:60px;"">  </div>",,,,html-keyboard-response,1,51868,0.0-1.0-0.0,,,,,,,
3,1647012486711,11/03/2022 15:28:06,1647012486680,1,11/03/2022 16:28:06,73265,15,task-yesg,,20303958,BLIND,6022522,Intro Experiment: General explanations,complete,,,computer,Desktop or Laptop,Windows 10,Chrome 99.0.4844.51,1280x720,1280x577,Part 1 completed,Pics_Only_Dutch,5,Part 1 completed,,Accuracy_level_1,,/task/320041/5/asset/pear.jpg,,,j,image-keyboard-response,2,53373,0.0-1.0-1.0,,,test,,0,,0.0271
4,1647012486824,11/03/2022 15:28:06,1647012486783,1,11/03/2022 16:28:06,73265,15,task-yesg,,20303958,BLIND,6022522,Intro Experiment: General explanations,complete,,,computer,Desktop or Laptop,Windows 10,Chrome 99.0.4844.51,1280x720,1280x577,Part 1 completed,Pics_Only_Dutch,5,Part 1 completed,,Accuracy_level_1,,"<div style=""font-size:60px;"">  </div>",,,,html-keyboard-response,3,53477,0.0-1.0-0.1,,,,,,,
5,1647012488335,11/03/2022 15:28:08,1647012488288,1,11/03/2022 16:28:08,73265,15,task-yesg,,20303958,BLIND,6022522,Intro Experiment: General explanations,complete,,,computer,Desktop or Laptop,Windows 10,Chrome 99.0.4844.51,1280x720,1280x577,Part 1 completed,Pics_Only_Dutch,5,Part 1 completed,,Accuracy_level_1,288.5,/task/320041/5/asset/key.png,,,j,image-keyboard-response,4,54982,0.0-1.0-1.1,,,test,,-0.35,,0.0539
6,1647012488423,11/03/2022 15:28:08,1647012488393,1,11/03/2022 16:28:08,73265,15,task-yesg,,20303958,BLIND,6022522,Intro Experiment: General explanations,complete,,,computer,Desktop or Laptop,Windows 10,Chrome 99.0.4844.51,1280x720,1280x577,Part 1 completed,Pics_Only_Dutch,5,Part 1 completed,,Accuracy_level_1,,"<div style=""font-size:60px;"">  </div>",,,,html-keyboard-response,5,55087,0.0-1.1-0.2,,,,,,,
7,1647012489953,11/03/2022 15:28:09,1647012489901,1,11/03/2022 16:28:09,73265,15,task-yesg,,20303958,BLIND,6022522,Intro Experiment: General explanations,complete,,,computer,Desktop or Laptop,Windows 10,Chrome 99.0.4844.51,1280x720,1280x577,Part 1 completed,Pics_Only_Dutch,5,Part 1 completed,,Accuracy_level_1,975.4000000059605,/task/320041/5/asset/comb.jpg,,,j,image-keyboard-response,6,56594,0.0-1.1-1.2,,,test,,,,0.08078333333333333
8,1647012490042,11/03/2022 15:28:10,1647012490008,1,11/03/2022 16:28:10,73265,15,task-yesg,,20303958,BLIND,6022522,Intro Experiment: General explanations,complete,,,computer,Desktop or Laptop,Windows 10,Chrome 99.0.4844.51,1280x720,1280x577,Part 1 completed,Pics_Only_Dutch,5,Part 1 completed,,Accuracy_level_1,,"<div style=""font-size:60px;"">  </div>",,,,html-keyboard-response,7,56702,0.0-1.1-0.3,,,,,,,
9,1647012491551,11/03/2022 15:28:11,1647012491515,1,11/03/2022 16:28:11,73265,15,task-yesg,,20303958,BLIND,6022522,Intro Experiment: General explanations,complete,,,computer,Desktop or Laptop,Windows 10,Chrome 99.0.4844.51,1280x720,1280x577,Part 1 completed,Pics_Only_Dutch,5,Part 1 completed,,Accuracy_level_1,477.3999999910593,/task/320041/5/asset/comb.jpg,,,j,image-keyboard-response,8,58208,0.0-1.1-1.3,,,test,,1.05,,0.10768333333333334
10,1647012491908,11/03/2022 15:28:11,1647012491619,1,11/03/2022 16:28:11,73265,15,task-yesg,,20303958,BLIND,6022522,Intro Experiment: General explanations,complete,,,computer,Desktop or Laptop,Windows 10,Chrome 99.0.4844.51,1280x720,1280x577,Part 1 completed,Pics_Only_Dutch,5,Part 1 completed,,Accuracy_level_1,,"<div style=""font-size:60px;"">  </div>",,,,html-keyboard-response,9,58313,0.0-1.2-0.4,,,,,,,
11,1647012493163,11/03/2022 15:28:13,1647012493124,1,11/03/2022 16:28:13,73265,15,task-yesg,,20303958,BLIND,6022522,Intro Experiment: General explanations,complete,,,computer,Desktop or Laptop,Windows 10,Chrome 99.0.4844.51,1280x720,1280x577,Part 1 completed,Pics_Only_Dutch,5,Part 1 completed,,Accuracy_level_1,651.8000000119209,/task/320041/5/asset/pear.jpg,,,j,image-keyboard-response,10,59818,0.0-1.2-1.4,,,test,,0.7,,0.1345
12,1647012493258,11/03/2022 15:28:13,1647012493229,1,11/03/2022 16:28:13,73265,15,task-yesg,,20303958,BLIND,6022522,Intro Experiment: General explanations,complete,,,computer,Desktop or Laptop,Windows 10,Chrome 99.0.4844.51,1280x720,1280x577,Part 1 completed,Pics_Only_Dutch,5,Part 1 completed,,Accuracy_level_1,,"<div style=""font-size:60px;"">  </div>",,,,html-keyboard-response,11,59923,0.0-1.2-0.5,,,,,,,
13,1647012494759,11/03/2022 15:28:14,1647012494734,1,11/03/2022 16:28:14,73265,15,task-yesg,,20303958,BLIND,6022522,Intro Experiment: General explanations,complete,,,computer,Desktop or Laptop,Windows 10,Chrome 99.0.4844.51,1280x720,1280x577,Part 1 completed,Pics_Only_Dutch,5,Part 1 completed,,Accuracy_level_1,1209.5,/task/320041/5/asset/plane.jpg,,,f,image-keyboard-response,12,61428,0.0-1.2-1.5,,,test,,0.5833333333333334,,0.16133333333333333
14,1647012494867,11/03/2022 15:28:14,1647012494839,1,11/03/2022 16:28:14,73265,15,task-yesg,,20303958,BLIND,6022522,Intro Experiment: General explanations,complete,,,computer,Desktop or Laptop,Windows 10,Chrome 99.0.4844.51,1280x720,1280x577,Part 1 completed,Pics_Only_Dutch,5,Part 1 completed,,Accuracy_level_1,,"<div style=""font-size:60px;"">  </div>",,,,html-keyboard-response,13,61533,0.0-1.3-0.6,,,,,,,
15,1647012496370,11/03/2022 15:28:16,1647012496343,1,11/03/2022 16:28:16,73265,15,task-yesg,,20303958,BLIND,6022522,Intro Experiment: General explanations,complete,,,computer,Desktop or Laptop,Windows 10,Chrome 99.0.4844.51,1280x720,1280x577,Part 1 completed,Pics_Only_Dutch,5,Part 1 completed,,Accuracy_level_1,,/task/320041/5/asset/key.png,,,j,image-keyboard-response,14,63036,0.0-1.3-1.6,,,test,,0.4375,,0.18815
16,1647012496574,11/03/2022 15:28:16,1647012496546,1,11/03/2022 16:28:16,73265,15,task-yesg,,20303958,BLIND,6022522,Intro Experiment: General explanations,complete,,,computer,Desktop or Laptop,Windows 10,Chrome 99.0.4844.51,1280x720,1280x577,Part 1 completed,Pics_Only_Dutch,5,Part 1 completed,,Accuracy_level_1,,"<span style=""color:red;font-size:50px;font-weight: bold;"">FOUT!</span>",,,,html-keyboard-response,15,63240,0.0-1.3-2.6-0.6,,,,,,,
17,1647012496682,11/03/2022 15:28:16,1647012496649,1,11/03/2022 16:28:16,73265,15,task-yesg,,20303958,BLIND,6022522,Intro Experiment: General explanations,complete,,,computer,Desktop or Laptop,Windows 10,Chrome 99.0.4844.51,1280x720,1280x577,Part 1 completed,Pics_Only_Dutch,5,Part 1 completed,,Accuracy_level_1,,"<div style=""font-size:60px;"">  </div>",,,,html-keyboard-response,16,63343,0.0-1.3-0.7,,,,,,,
18,1647012498214,11/03/2022 15:28:18,1647012498171,1,11/03/2022 16:28:18,73265,15,task-yesg,,20303958,BLIND,6022522,Intro Experiment: General explanations,complete,,,computer,Desktop or Laptop,Windows 10,Chrome 99.0.4844.51,1280x720,1280x577,Part 1 completed,Pics_Only_Dutch,5,Part 1 completed,,Accuracy_level_1,,/task/320041/5/asset/comb.jpg,,,j,image-keyboard-response,17,64864,0.0-1.3-1.7,,,test,,0.3181818181818182,,0.2186
19,1647012498413,11/03/2022 15:28:18,1647012498376,1,11/03/2022 16:28:18,73265,15,task-yesg,,20303958,BLIND,6022522,Intro Experiment: General explanations,complete,,,computer,Desktop or Laptop,Windows 10,Chrome 99.0.4844.51,1280x720,1280x577,Part 1 completed,Pics_Only_Dutch,5,Part 1 completed,,Accuracy_level_1,,"<span style=""color:red;font-size:50px;font-weight: bold;"">FOUT!</span>",,,,html-keyboard-response,18,65070,0.0-1.3-2.7-0.7,,,,,,,
1,1647697605897,19/03/2022 13:46:45,1647697605793,1,19/03/2022 14:46:45,73265,15,task-yesg,,20556841,BLIND,6094733,Intro Experiment: General explanations,complete,,,computer,Desktop or Laptop,Mac OS 10.15.3,Safari 13.0.5,1280x800,1277x673,Part 1 completed,Pics_Only_Dutch,5,Part 1 completed,,Accuracy_level_1,49928,,,,,instructions,0,49933,0.0-0.0,,,,,,,
2,1647697605977,19/03/2022 13:46:45,1647697605899,1,19/03/2022 14:46:45,73265,15,task-yesg,,20556841,BLIND,6094733,Intro Experiment: General explanations,complete,,,computer,Desktop or Laptop,Mac OS 10.15.3,Safari 13.0.5,1280x800,1277x673,Part 1 completed,Pics_Only_Dutch,5,Part 1 completed,,Accuracy_level_1,,"<div style=""font-size:60px;"">  </div>",,,,html-keyboard-response,1,50039,0.0-1.0-0.0,,,,,,,
3,1647697607457,19/03/2022 13:46:47,1647697607404,1,19/03/2022 14:46:47,73265,15,task-yesg,,20556841,BLIND,6094733,Intro Experiment: General explanations,complete,,,computer,Desktop or Laptop,Mac OS 10.15.3,Safari 13.0.5,1280x800,1277x673,Part 1 completed,Pics_Only_Dutch,5,Part 1 completed,,Accuracy_level_1,,/task/320041/5/asset/comb.jpg,,,j,image-keyboard-response,2,51544,0.0-1.0-1.0,,,test,,0,,0.02685
4,1647697607543,19/03/2022 13:46:47,1647697607510,1,19/03/2022 14:46:47,73265,15,task-yesg,,20556841,BLIND,6094733,Intro Experiment: General explanations,complete,,,computer,Desktop or Laptop,Mac OS 10.15.3,Safari 13.0.5,1280x800,1277x673,Part 1 completed,Pics_Only_Dutch,5,Part 1 completed,,Accuracy_level_1,,"<div style=""font-size:60px;"">  </div>",,,,html-keyboard-response,3,51651,0.0-1.0-0.1,,,,,,,
5,1647697609066,19/03/2022 13:46:49,1647697609014,1,19/03/2022 14:46:49,73265,15,task-yesg,,20556841,BLIND,6094733,Intro Experiment: General explanations,complete,,,computer,Desktop or Laptop,Mac OS 10.15.3,Safari 13.0.5,1280x800,1277x673,Part 1 completed,Pics_Only_Dutch,5,Part 1 completed,,Accuracy_level_1,268.9999999999927,/task/320041/5/asset/key.png,,,j,image-keyboard-response,4,53155,0.0-1.0-1.1,,,test,,-0.35,,0.05368333333333333
6,1647697609145,19/03/2022 13:46:49,1647697609119,1,19/03/2022 14:46:49,73265,15,task-yesg,,20556841,BLIND,6094733,Intro Experiment: General explanations,complete,,,computer,Desktop or Laptop,Mac OS 10.15.3,Safari 13.0.5,1280x800,1277x673,Part 1 completed,Pics_Only_Dutch,5,Part 1 completed,,Accuracy_level_1,,"<div style=""font-size:60px;"">  </div>",,,,html-keyboard-response,5,53260,0.0-1.1-0.2,,,,,,,
7,1647697610671,19/03/2022 13:46:50,1647697610623,1,19/03/2022 14:46:50,73265,15,task-yesg,,20556841,BLIND,6094733,Intro Experiment: General explanations,complete,,,computer,Desktop or Laptop,Mac OS 10.15.3,Safari 13.0.5,1280x800,1277x673,Part 1 completed,Pics_Only_Dutch,5,Part 1 completed,,Accuracy_level_1,694,/task/320041/5/asset/elephant.jpg,,,f,image-keyboard-response,6,54764,0.0-1.1-1.2,,,test,,,,0.0805
8,1647697610754,19/03/2022 13:46:50,1647697610726,1,19/03/2022 14:46:50,73265,15,task-yesg,,20556841,BLIND,6094733,Intro Experiment: General explanations,complete,,,computer,Desktop or Laptop,Mac OS 10.15.3,Safari 13.0.5,1280x800,1277x673,Part 1 completed,Pics_Only_Dutch,5,Part 1 completed,,Accuracy_level_1,,"<div style=""font-size:60px;"">  </div>",,,,html-keyboard-response,7,54867,0.0-1.1-0.3,,,,,,,
9,1647697612256,19/03/2022 13:46:52,1647697612231,1,19/03/2022 14:46:52,73265,15,task-yesg,,20556841,BLIND,6094733,Intro Experiment: General explanations,complete,,,computer,Desktop or Laptop,Mac OS 10.15.3,Safari 13.0.5,1280x800,1277x673,Part 1 completed,Pics_Only_Dutch,5,Part 1 completed,,Accuracy_level_1,,/task/320041/5/asset/key.png,,,j,image-keyboard-response,8,56371,0.0-1.1-1.3,,,test,,0.7,,0.1073
10,1647697612461,19/03/2022 13:46:52,1647697612435,1,19/03/2022 14:46:52,73265,15,task-yesg,,20556841,BLIND,6094733,Intro Experiment: General explanations,complete,,,computer,Desktop or Laptop,Mac OS 10.15.3,Safari 13.0.5,1280x800,1277x673,Part 1 completed,Pics_Only_Dutch,5,Part 1 completed,,Accuracy_level_1,,"<span style=""color:red;font-size:50px;font-weight: bold;"">FOUT!</span>",,,,html-keyboard-response,9,56576,0.0-1.1-2.3-0.3,,,,,,,
11,1647697612569,19/03/2022 13:46:52,1647697612539,1,19/03/2022 14:46:52,73265,15,task-yesg,,20556841,BLIND,6094733,Intro Experiment: General explanations,complete,,,computer,Desktop or Laptop,Mac OS 10.15.3,Safari 13.0.5,1280x800,1277x673,Part 1 completed,Pics_Only_Dutch,5,Part 1 completed,,Accuracy_level_1,,"<div style=""font-size:60px;"">  </div>",,,,html-keyboard-response,10,56679,0.0-1.2-0.4,,,,,,,
12,1647697614071,19/03/2022 13:46:54,1647697614045,1,19/03/2022 14:46:54,73265,15,task-yesg,,20556841,BLIND,6094733,Intro Experiment: General explanations,complete,,,computer,Desktop or Laptop,Mac OS 10.15.3,Safari 13.0.5,1280x800,1277x673,Part 1 completed,Pics_Only_Dutch,5,Part 1 completed,,Accuracy_level_1,920.0000000000073,/task/320041/5/asset/pear.jpg,,,j,image-keyboard-response,11,58183,0.0-1.2-1.4,,,test,,0.42000000000000004,,0.13753333333333334
13,1647697614183,19/03/2022 13:46:54,1647697614149,1,19/03/2022 14:46:54,73265,15,task-yesg,,20556841,BLIND,6094733,Intro Experiment: General explanations,complete,,,computer,Desktop or Laptop,Mac OS 10.15.3,Safari 13.0.5,1280x800,1277x673,Part 1 completed,Pics_Only_Dutch,5,Part 1 completed,,Accuracy_level_1,,"<div style=""font-size:60px;"">  </div>",,,,html-keyboard-response,12,58290,0.0-1.2-0.5,,,,,,,
14,1647697615678,19/03/2022 13:46:55,1647697615656,1,19/03/2022 14:46:55,73265,15,task-yesg,,20556841,BLIND,6094733,Intro Experiment: General explanations,complete,,,computer,Desktop or Laptop,Mac OS 10.15.3,Safari 13.0.5,1280x800,1277x673,Part 1 completed,Pics_Only_Dutch,5,Part 1 completed,,Accuracy_level_1,702,/task/320041/5/asset/elephant.jpg,,,f,image-keyboard-response,13,59796,0.0-1.2-1.5,,,test,,0.39999999999999997,,0.16438333333333333
15,1647697615792,19/03/2022 13:46:55,1647697615760,1,19/03/2022 14:46:55,73265,15,task-yesg,,20556841,BLIND,6094733,Intro Experiment: General explanations,complete,,,computer,Desktop or Laptop,Mac OS 10.15.3,Safari 13.0.5,1280x800,1277x673,Part 1 completed,Pics_Only_Dutch,5,Part 1 completed,,Accuracy_level_1,,"<div style=""font-size:60px;"">  </div>",,,,html-keyboard-response,14,59901,0.0-1.3-0.6,,,,,,,
16,1647697617293,19/03/2022 13:46:57,1647697617267,1,19/03/2022 14:46:57,73265,15,task-yesg,,20556841,BLIND,6094733,Intro Experiment: General explanations,complete,,,computer,Desktop or Laptop,Mac OS 10.15.3,Safari 13.0.5,1280x800,1277x673,Part 1 completed,Pics_Only_Dutch,5,Part 1 completed,,Accuracy_level_1,854.9999999999927,/task/320041/5/asset/plane.jpg,,,f,image-keyboard-response,15,61405,0.0-1.3-1.6,,,test,,0.3888888888888889,,0.19123333333333334
17,1647697617390,19/03/2022 13:46:57,1647697617371,1,19/03/2022 14:46:57,73265,15,task-yesg,,20556841,BLIND,6094733,Intro Experiment: General explanations,complete,,,computer,Desktop or Laptop,Mac OS 10.15.3,Safari 13.0.5,1280x800,1277x673,Part 1 completed,Pics_Only_Dutch,5,Part 1 completed,,Accuracy_level_1,,"<div style=""font-size:60px;"">  </div>",,,,html-keyboard-response,16,61511,0.0-1.3-0.7,,,,,,,
18,1647697618902,19/03/2022 13:46:58,1647697618875,1,19/03/2022 14:46:58,73265,15,task-yesg,,20556841,BLIND,6094733,Intro Experiment: General explanations,complete,,,computer,Desktop or Laptop,Mac OS 10.15.3,Safari 13.0.5,1280x800,1277x673,Part 1 completed,Pics_Only_Dutch,5,Part 1 completed,,Accuracy_level_1,625,/task/320041/5/asset/elephant.jpg,,,f,image-keyboard-response,17,63016,0.0-1.3-1.7,,,test,,0.38181818181818183,,0.21803333333333333
1,1647460438501,16/03/2022 19:53:58,1647460438265,1,16/03/2022 20:53:58,73265,15,task-yesg,,20470782,BLIND,6070227,Intro Experiment: General explanations,complete,,,computer,Desktop or Laptop,Windows 10,Chrome 99.0.4844.51,1366x768,1366x657,Part 1 completed,Pics_Only_Dutch,5,Part 1 completed,,Accuracy_level_1,73779.10000038147,,,,,instructions,0,73784,0.0-0.0,,,,,,,
2,1647460438579,16/03/2022 19:53:58,1647460438393,1,16/03/2022 20:53:58,73265,15,task-yesg,,20470782,BLIND,6070227,Intro Experiment: General explanations,complete,,,computer,Desktop or Laptop,Windows 10,Chrome 99.0.4844.51,1366x768,1366x657,Part 1 completed,Pics_Only_Dutch,5,Part 1 completed,,Accuracy_level_1,,"<div style=""font-size:60px;"">  </div>",,,,html-keyboard-response,1,73912,0.0-1.0-0.0,,,,,,,
3,1647460440099,16/03/2022 19:54:00,1647460439902,1,16/03/2022 20:53:59,73265,15,task-yesg,,20470782,BLIND,6070227,Intro Experiment: General explanations,complete,,,computer,Desktop or Laptop,Windows 10,Chrome 99.0.4844.51,1366x768,1366x657,Part 1 completed,Pics_Only_Dutch,5,Part 1 completed,,Accuracy_level_1,1256.1000003814697,/task/320041/5/asset/comb.jpg,,,j,image-keyboard-response,2,75421,0.0-1.0-1.0,,,test,,-0.175,,0.0273
4,1647460440221,16/03/2022 19:54:00,1647460440071,1,16/03/2022 20:54:00,73265,15,task-yesg,,20470782,BLIND,6070227,Intro Experiment: General explanations,complete,,,computer,Desktop or Laptop,Windows 10,Chrome 99.0.4844.51,1366x768,1366x657,Part 1 completed,Pics_Only_Dutch,5,Part 1 completed,,Accuracy_level_1,,"<div style=""font-size:60px;"">  </div>",,,,html-keyboard-response,3,75591,0.0-1.0-0.1,,,,,,,
5,1647460441766,16/03/2022 19:54:01,1647460441588,1,16/03/2022 20:54:01,73265,15,task-yesg,,20470782,BLIND,6070227,Intro Experiment: General explanations,complete,,,computer,Desktop or Laptop,Windows 10,Chrome 99.0.4844.51,1366x768,1366x657,Part 1 completed,Pics_Only_Dutch,5,Part 1 completed,,Accuracy_level_1,671.1999998092651,/task/320041/5/asset/house.jpg,,,f,image-keyboard-response,4,77108,0.0-1.0-1.1,,,test,,-0.7,,0.0554
6,1647460441877,16/03/2022 19:54:01,1647460441700,1,16/03/2022 20:54:01,73265,15,task-yesg,,20470782,BLIND,6070227,Intro Experiment: General explanations,complete,,,computer,Desktop or Laptop,Windows 10,Chrome 99.0.4844.51,1366x768,1366x657,Part 1 completed,Pics_Only_Dutch,5,Part 1 completed,,Accuracy_level_1,,"<div style=""font-size:60px;"">  </div>",,,,html-keyboard-response,5,77220,0.0-1.1-0.2,,,,,,,
7,1647460443376,16/03/2022 19:54:03,1647460443208,1,16/03/2022 20:54:03,73265,15,task-yesg,,20470782,BLIND,6070227,Intro Experiment: General explanations,complete,,,computer,Desktop or Laptop,Windows 10,Chrome 99.0.4844.51,1366x768,1366x657,Part 1 completed,Pics_Only_Dutch,5,Part 1 completed,,Accuracy_level_1,509.6000003814697,/task/320041/5/asset/house.jpg,,,f,image-keyboard-response,6,78728,0.0-1.1-1.2,,,test,,,,0.0824
8,1647460443478,16/03/2022 19:54:03,1647460443319,1,16/03/2022 20:54:03,73265,15,task-yesg,,20470782,BLIND,6070227,Intro Experiment: General explanations,complete,,,computer,Desktop or Laptop,Windows 10,Chrome 99.0.4844.51,1366x768,1366x657,Part 1 completed,Pics_Only_Dutch,5,Part 1 completed,,Accuracy_level_1,,"<div style=""font-size:60px;"">  </div>",,,,html-keyboard-response,7,78839,0.0-1.1-0.3,,,,,,,
9,1647460445005,16/03/2022 19:54:05,1647460444838,1,16/03/2022 20:54:04,73265,15,task-yesg,,20470782,BLIND,6070227,Intro Experiment: General explanations,complete,,,computer,Desktop or Laptop,Windows 10,Chrome 99.0.4844.51,1366x768,1366x657,Part 1 completed,Pics_Only_Dutch,5,Part 1 completed,,Accuracy_level_1,,/task/320041/5/asset/key.png,,,j,image-keyboard-response,8,80358,0.0-1.1-1.3,,,test,,1.05,,0.10956666666666667
10,1647460445217,16/03/2022 19:54:05,1647460445057,1,16/03/2022 20:54:05,73265,15,task-yesg,,20470782,BLIND,6070227,Intro Experiment: General explanations,complete,,,computer,Desktop or Laptop,Windows 10,Chrome 99.0.4844.51,1366x768,1366x657,Part 1 completed,Pics_Only_Dutch,5,Part 1 completed,,Accuracy_level_1,,"<span style=""color:red;font-size:50px;font-weight: bold;"">FOUT!</span>",,,,html-keyboard-response,9,80577,0.0-1.1-2.3-0.3,,,,,,,
11,1647460445320,16/03/2022 19:54:05,1647460445168,1,16/03/2022 20:54:05,73265,15,task-yesg,,20470782,BLIND,6070227,Intro Experiment: General explanations,complete,,,computer,Desktop or Laptop,Windows 10,Chrome 99.0.4844.51,1366x768,1366x657,Part 1 completed,Pics_Only_Dutch,5,Part 1 completed,,Accuracy_level_1,,"<div style=""font-size:60px;"">  </div>",,,,html-keyboard-response,10,80688,0.0-1.2-0.4,,,,,,,
12,1647460446837,16/03/2022 19:54:06,1647460446677,1,16/03/2022 20:54:06,73265,15,task-yesg,,20470782,BLIND,6070227,Intro Experiment: General explanations,complete,,,computer,Desktop or Laptop,Windows 10,Chrome 99.0.4844.51,1366x768,1366x657,Part 1 completed,Pics_Only_Dutch,5,Part 1 completed,,Accuracy_level_1,994.1999998092651,/task/320041/5/asset/truck.jpg,,,f,image-keyboard-response,11,82197,0.0-1.2-1.4,,,test,,0.5599999999999999,,0.14021666666666666
13,1647460446949,16/03/2022 19:54:06,1647460446786,1,16/03/2022 20:54:06,73265,15,task-yesg,,20470782,BLIND,6070227,Intro Experiment: General explanations,complete,,,computer,Desktop or Laptop,Windows 10,Chrome 99.0.4844.51,1366x768,1366x657,Part 1 completed,Pics_Only_Dutch,5,Part 1 completed,,Accuracy_level_1,,"<div style=""font-size:60px;"">  </div>",,,,html-keyboard-response,12,82306,0.0-1.2-0.5,,,,,,,
14,1647460448453,16/03/2022 19:54:08,1647460448294,1,16/03/2022 20:54:08,73265,15,task-yesg,,20470782,BLIND,6070227,Intro Experiment: General explanations,complete,,,computer,Desktop or Laptop,Windows 10,Chrome 99.0.4844.51,1366x768,1366x657,Part 1 completed,Pics_Only_Dutch,5,Part 1 completed,,Accuracy_level_1,904.8999996185303,/task/320041/5/asset/comb.jpg,,,j,image-keyboard-response,13,83814,0.0-1.2-1.5,,,test,,0.5,,0.16716666666666666
15,1647460448557,16/03/2022 19:54:08,1647460448406,1,16/03/2022 20:54:08,73265,15,task-yesg,,20470782,BLIND,6070227,Intro Experiment: General explanations,complete,,,computer,Desktop or Laptop,Windows 10,Chrome 99.0.4844.51,1366x768,1366x657,Part 1 completed,Pics_Only_Dutch,5,Part 1 completed,,Accuracy_level_1,,"<div style=""font-size:60px;"">  </div>",,,,html-keyboard-response,14,83926,0.0-1.3-0.6,,,,,,,
16,1647460450082,16/03/2022 19:54:10,1647460449918,1,16/03/2022 20:54:09,73265,15,task-yesg,,20470782,BLIND,6070227,Intro Experiment: General explanations,complete,,,computer,Desktop or Laptop,Windows 10,Chrome 99.0.4844.51,1366x768,1366x657,Part 1 completed,Pics_Only_Dutch,5,Part 1 completed,,Accuracy_level_1,766.5999994277954,/task/320041/5/asset/elephant.jpg,,,f,image-keyboard-response,15,85438,0.0-1.3-1.6,,,test,,0.4666666666666667,,0.19423333333333334
17,1647460450178,16/03/2022 19:54:10,1647460450031,1,16/03/2022 20:54:10,73265,15,task-yesg,,20470782,BLIND,6070227,Intro Experiment: General explanations,complete,,,computer,Desktop or Laptop,Windows 10,Chrome 99.0.4844.51,1366x768,1366x657,Part 1 completed,Pics_Only_Dutch,5,Part 1 completed,,Accuracy_level_1,,"<div style=""font-size:60px;"">  </div>",,,,html-keyboard-response,16,85551,0.0-1.3-0.7,,,,,,,
18,1647460451712,16/03/2022 19:54:11,1647460451546,1,16/03/2022 20:54:11,73265,15,task-yesg,,20470782,BLIND,6070227,Intro Experiment: General explanations,complete,,,computer,Desktop or Laptop,Windows 10,Chrome 99.0.4844.51,1366x768,1366x657,Part 1 completed,Pics_Only_Dutch,5,Part 1 completed,,Accuracy_level_1,532.2999992370605,/task/320041/5/asset/comb.jpg,,,j,image-keyboard-response,17,87066,0.0-1.3-1.7,,,test,,0.4454545454545455,,0.22136666666666666
1,1647361809949,15/03/2022 16:30:09,1647361809756,1,15/03/2022 17:30:09,73265,15,task-yesg,,20411353,BLIND,6054962,Intro Experiment: General explanations,complete,,,computer,Desktop or Laptop,Mac OS 10.15.7,Safari 15.2,1440x900,1440x820,Part 1 completed,Pics_Only_Dutch,5,Part 1 completed,,Accuracy_level_1,76684,,,,,instructions,0,76689,0.0-0.0,,,,,,,
2,1647361810058,15/03/2022 16:30:10,1647361809867,1,15/03/2022 17:30:09,73265,15,task-yesg,,20411353,BLIND,6054962,Intro Experiment: General explanations,complete,,,computer,Desktop or Laptop,Mac OS 10.15.7,Safari 15.2,1440x900,1440x820,Part 1 completed,Pics_Only_Dutch,5,Part 1 completed,,Accuracy_level_1,,"<div style=""font-size:60px;"">  </div>",,,,html-keyboard-response,1,76801,0.0-1.0-0.0,,,,,,,
3,1647361811522,15/03/2022 16:30:11,1647361811373,1,15/03/2022 17:30:11,73265,15,task-yesg,,20411353,BLIND,6054962,Intro Experiment: General explanations,complete,,,computer,Desktop or Laptop,Mac OS 10.15.7,Safari 15.2,1440x900,1440x820,Part 1 completed,Pics_Only_Dutch,5,Part 1 completed,,Accuracy_level_1,1067.0000000000146,/task/320041/5/asset/house.jpg,,,f,image-keyboard-response,2,78306,0.0-1.0-1.0,,,test,,0,,0.02695
4,1647361811636,15/03/2022 16:30:11,1647361811478,1,15/03/2022 17:30:11,73265,15,task-yesg,,20411353,BLIND,6054962,Intro Experiment: General explanations,complete,,,computer,Desktop or Laptop,Mac OS 10.15.7,Safari 15.2,1440x900,1440x820,Part 1 completed,Pics_Only_Dutch,5,Part 1 completed,,Accuracy_level_1,,"<div style=""font-size:60px;"">  </div>",,,,html-keyboard-response,3,78412,0.0-1.0-0.1,,,,,,,
5,1647361813116,15/03/2022 16:30:13,1647361812982,1,15/03/2022 17:30:12,73265,15,task-yesg,,20411353,BLIND,6054962,Intro Experiment: General explanations,complete,,,computer,Desktop or Laptop,Mac OS 10.15.7,Safari 15.2,1440x900,1440x820,Part 1 completed,Pics_Only_Dutch,5,Part 1 completed,,Accuracy_level_1,155,/task/320041/5/asset/elephant.jpg,,,f,image-keyboard-response,4,79916,0.0-1.0-1.1,,,test,,-0.35,,0.053766666666666664
6,1647361813241,15/03/2022 16:30:13,1647361813089,1,15/03/2022 17:30:13,73265,15,task-yesg,,20411353,BLIND,6054962,Intro Experiment: General explanations,complete,,,computer,Desktop or Laptop,Mac OS 10.15.7,Safari 15.2,1440x900,1440x820,Part 1 completed,Pics_Only_Dutch,5,Part 1 completed,,Accuracy_level_1,,"<div style=""font-size:60px;"">  </div>",,,,html-keyboard-response,5,80022,0.0-1.1-0.2,,,,,,,
7,1647361814733,15/03/2022 16:30:14,1647361814594,1,15/03/2022 17:30:14,73265,15,task-yesg,,20411353,BLIND,6054962,Intro Experiment: General explanations,complete,,,computer,Desktop or Laptop,Mac OS 10.15.7,Safari 15.2,1440x900,1440x820,Part 1 completed,Pics_Only_Dutch,5,Part 1 completed,,Accuracy_level_1,809.9999999999854,/task/320041/5/asset/pear.jpg,,,j,image-keyboard-response,6,81528,0.0-1.1-1.2,,,test,,,,0.08063333333333333
8,1647361815006,15/03/2022 16:30:15,1647361814698,1,15/03/2022 17:30:14,73265,15,task-yesg,,20411353,BLIND,6054962,Intro Experiment: General explanations,complete,,,computer,Desktop or Laptop,Mac OS 10.15.7,Safari 15.2,1440x900,1440x820,Part 1 completed,Pics_Only_Dutch,5,Part 1 completed,,Accuracy_level_1,,"<div style=""font-size:60px;"">  </div>",,,,html-keyboard-response,7,81632,0.0-1.1-0.3,,,,,,,
9,1647361816349,15/03/2022 16:30:16,1647361816201,1,15/03/2022 17:30:16,73265,15,task-yesg,,20411353,BLIND,6054962,Intro Experiment: General explanations,complete,,,computer,Desktop or Laptop,Mac OS 10.15.7,Safari 15.2,1440x900,1440x820,Part 1 completed,Pics_Only_Dutch,5,Part 1 completed,,Accuracy_level_1,,/task/320041/5/asset/key.png,,,j,image-keyboard-response,8,83135,0.0-1.1-1.3,,,test,,0.7,,0.10741666666666666
10,1647361816546,15/03/2022 16:30:16,1647361816407,1,15/03/2022 17:30:16,73265,15,task-yesg,,20411353,BLIND,6054962,Intro Experiment: General explanations,complete,,,computer,Desktop or Laptop,Mac OS 10.15.7,Safari 15.2,1440x900,1440x820,Part 1 completed,Pics_Only_Dutch,5,Part 1 completed,,Accuracy_level_1,,"<span style=""color:red;font-size:50px;font-weight: bold;"">FOUT!</span>",,,,html-keyboard-response,9,83340,0.0-1.1-2.3-0.3,,,,,,,
11,1647361816646,15/03/2022 16:30:16,1647361816512,1,15/03/2022 17:30:16,73265,15,task-yesg,,20411353,BLIND,6054962,Intro Experiment: General explanations,complete,,,computer,Desktop or Laptop,Mac OS 10.15.7,Safari 15.2,1440x900,1440x820,Part 1 completed,Pics_Only_Dutch,5,Part 1 completed,,Accuracy_level_1,,"<div style=""font-size:60px;"">  </div>",,,,html-keyboard-response,10,83445,0.0-1.2-0.4,,,,,,,
12,1647361818151,15/03/2022 16:30:18,1647361818017,1,15/03/2022 17:30:18,73265,15,task-yesg,,20411353,BLIND,6054962,Intro Experiment: General explanations,complete,,,computer,Desktop or Laptop,Mac OS 10.15.7,Safari 15.2,1440x900,1440x820,Part 1 completed,Pics_Only_Dutch,5,Part 1 completed,,Accuracy_level_1,1104,/task/320041/5/asset/comb.jpg,,,j,image-keyboard-response,11,84951,0.0-1.2-1.4,,,test,,0.42000000000000004,,0.13768333333333332
13,1647361818265,15/03/2022 16:30:18,1647361818122,1,15/03/2022 17:30:18,73265,15,task-yesg,,20411353,BLIND,6054962,Intro Experiment: General explanations,complete,,,computer,Desktop or Laptop,Mac OS 10.15.7,Safari 15.2,1440x900,1440x820,Part 1 completed,Pics_Only_Dutch,5,Part 1 completed,,Accuracy_level_1,,"<div style=""font-size:60px;"">  </div>",,,,html-keyboard-response,12,85056,0.0-1.2-0.5,,,,,,,
14,1647361819774,15/03/2022 16:30:19,1647361819628,1,15/03/2022 17:30:19,73265,15,task-yesg,,20411353,BLIND,6054962,Intro Experiment: General explanations,complete,,,computer,Desktop or Laptop,Mac OS 10.15.7,Safari 15.2,1440x900,1440x820,Part 1 completed,Pics_Only_Dutch,5,Part 1 completed,,Accuracy_level_1,,/task/320041/5/asset/key.png,,,j,image-keyboard-response,13,86562,0.0-1.2-1.5,,,test,,0.3,,0.16453333333333334
15,1647361819961,15/03/2022 16:30:19,1647361819833,1,15/03/2022 17:30:19,73265,15,task-yesg,,20411353,BLIND,6054962,Intro Experiment: General explanations,complete,,,computer,Desktop or Laptop,Mac OS 10.15.7,Safari 15.2,1440x900,1440x820,Part 1 completed,Pics_Only_Dutch,5,Part 1 completed,,Accuracy_level_1,,"<span style=""color:red;font-size:50px;font-weight: bold;"">FOUT!</span>",,,,html-keyboard-response,14,86767,0.0-1.2-2.5-0.5,,,,,,,
16,1647361820088,15/03/2022 16:30:20,1647361819937,1,15/03/2022 17:30:19,73265,15,task-yesg,,20411353,BLIND,6054962,Intro Experiment: General explanations,complete,,,computer,Desktop or Laptop,Mac OS 10.15.7,Safari 15.2,1440x900,1440x820,Part 1 completed,Pics_Only_Dutch,5,Part 1 completed,,Accuracy_level_1,,"<div style=""font-size:60px;"">  </div>",,,,html-keyboard-response,15,86871,0.0-1.3-0.6,,,,,,,
17,1647361821605,15/03/2022 16:30:21,1647361821443,1,15/03/2022 17:30:21,73265,15,task-yesg,,20411353,BLIND,6054962,Intro Experiment: General explanations,complete,,,computer,Desktop or Laptop,Mac OS 10.15.7,Safari 15.2,1440x900,1440x820,Part 1 completed,Pics_Only_Dutch,5,Part 1 completed,,Accuracy_level_1,,/task/320041/5/asset/key.png,,,j,image-keyboard-response,16,88376,0.0-1.3-1.6,,,test,,0.21000000000000002,,0.19478333333333334
18,1647361821791,15/03/2022 16:30:21,1647361821647,1,15/03/2022 17:30:21,73265,15,task-yesg,,20411353,BLIND,6054962,Intro Experiment: General explanations,complete,,,computer,Desktop or Laptop,Mac OS 10.15.7,Safari 15.2,1440x900,1440x820,Part 1 completed,Pics_Only_Dutch,5,Part 1 completed,,Accuracy_level_1,,"<span style=""color:red;font-size:50px;font-weight: bold;"">FOUT!</span>",,,,html-keyboard-response,17,88581,0.0-1.3-2.6-0.6,,,,,,,
19,1647361822167,15/03/2022 16:30:22,1647361821751,1,15/03/2022 17:30:21,73265,15,task-yesg,,20411353,BLIND,6054962,Intro Experiment: General explanations,complete,,,computer,Desktop or Laptop,Mac OS 10.15.7,Safari 15.2,1440x900,1440x820,Part 1 completed,Pics_Only_Dutch,5,Part 1 completed,,Accuracy_level_1,,"<div style=""font-size:60px;"">  </div>",,,,html-keyboard-response,18,88685,0.0-1.3-0.7,,,,,,,
20,1647361823402,15/03/2022 16:30:23,1647361823267,1,15/03/2022 17:30:23,73265,15,task-yesg,,20411353,BLIND,6054962,Intro Experiment: General explanations,complete,,,computer,Desktop or Laptop,Mac OS 10.15.7,Safari 15.2,1440x900,1440x820,Part 1 completed,Pics_Only_Dutch,5,Part 1 completed,,Accuracy_level_1,743,/task/320041/5/asset/comb.jpg,,,j,image-keyboard-response,19,90201,0.0-1.3-1.7,,,test,,0.21538461538461537,,0.22518333333333335
1,1647196240252,13/03/2022 18:30:40,1647196240041,1,13/03/2022 19:30:40,73265,15,task-yesg,,20346623,BLIND,6034899,Intro Experiment: General explanations,complete,,,computer,Desktop or Laptop,Windows 10,Chrome 99.0.4844.51,1536x864,1536x722,Part 1 completed,Pics_Only_Dutch,5,Part 1 completed,,Accuracy_level_1,38877.29999999702,,,,,instructions,0,38881,0.0-0.0,,,,,,,
2,1647196240330,13/03/2022 18:30:40,1647196240150,1,13/03/2022 19:30:40,73265,15,task-yesg,,20346623,BLIND,6034899,Intro Experiment: General explanations,complete,,,computer,Desktop or Laptop,Windows 10,Chrome 99.0.4844.51,1536x864,1536x722,Part 1 completed,Pics_Only_Dutch,5,Part 1 completed,,Accuracy_level_1,,"<div style=""font-size:60px;"">  </div>",,,,html-keyboard-response,1,38991,0.0-1.0-0.0,,,,,,,
3,1647196241818,13/03/2022 18:30:41,1647196241655,1,13/03/2022 19:30:41,73265,15,task-yesg,,20346623,BLIND,6034899,Intro Experiment: General explanations,complete,,,computer,Desktop or Laptop,Windows 10,Chrome 99.0.4844.51,1536x864,1536x722,Part 1 completed,Pics_Only_Dutch,5,Part 1 completed,,Accuracy_level_1,590.2000000029802,/task/320041/5/asset/comb.jpg,,,j,image-keyboard-response,2,40495,0.0-1.0-1.0,,,test,,-0.175,,0.026916666666666665
4,1647196241910,13/03/2022 18:30:41,1647196241758,1,13/03/2022 19:30:41,73265,15,task-yesg,,20346623,BLIND,6034899,Intro Experiment: General explanations,complete,,,computer,Desktop or Laptop,Windows 10,Chrome 99.0.4844.51,1536x864,1536x722,Part 1 completed,Pics_Only_Dutch,5,Part 1 completed,,Accuracy_level_1,,"<div style=""font-size:60px;"">  </div>",,,,html-keyboard-response,3,40599,0.0-1.0-0.1,,,,,,,
5,1647196243426,13/03/2022 18:30:43,1647196243261,1,13/03/2022 19:30:43,73265,15,task-yesg,,20346623,BLIND,6034899,Intro Experiment: General explanations,complete,,,computer,Desktop or Laptop,Windows 10,Chrome 99.0.4844.51,1536x864,1536x722,Part 1 completed,Pics_Only_Dutch,5,Part 1 completed,,Accuracy_level_1,633,/task/320041/5/asset/elephant.jpg,,,f,image-keyboard-response,4,42102,0.0-1.0-1.1,,,test,,-0.7,,0.05368333333333333
6,1647196243506,13/03/2022 18:30:43,1647196243364,1,13/03/2022 19:30:43,73265,15,task-yesg,,20346623,BLIND,6034899,Intro Experiment: General explanations,complete,,,computer,Desktop or Laptop,Windows 10,Chrome 99.0.4844.51,1536x864,1536x722,Part 1 completed,Pics_Only_Dutch,5,Part 1 completed,,Accuracy_level_1,,"<div style=""font-size:60px;"">  </div>",,,,html-keyboard-response,5,42205,0.0-1.1-0.2,,,,,,,
7,1647196245022,13/03/2022 18:30:45,1647196244869,1,13/03/2022 19:30:44,73265,15,task-yesg,,20346623,BLIND,6034899,Intro Experiment: General explanations,complete,,,computer,Desktop or Laptop,Windows 10,Chrome 99.0.4844.51,1536x864,1536x722,Part 1 completed,Pics_Only_Dutch,5,Part 1 completed,,Accuracy_level_1,424.79999999701977,/task/320041/5/asset/comb.jpg,,,j,image-keyboard-response,6,43710,0.0-1.1-1.2,,,test,,,,0.08048333333333334
8,1647196245132,13/03/2022 18:30:45,1647196244972,1,13/03/2022 19:30:44,73265,15,task-yesg,,20346623,BLIND,6034899,Intro Experiment: General explanations,complete,,,computer,Desktop or Laptop,Windows 10,Chrome 99.0.4844.51,1536x864,1536x722,Part 1 completed,Pics_Only_Dutch,5,Part 1 completed,,Accuracy_level_1,,"<div style=""font-size:60px;"">  </div>",,,,html-keyboard-response,7,43813,0.0-1.1-0.3,,,,,,,
9,1647196246632,13/03/2022 18:30:46,1647196246476,1,13/03/2022 19:30:46,73265,15,task-yesg,,20346623,BLIND,6034899,Intro Experiment: General explanations,complete,,,computer,Desktop or Laptop,Windows 10,Chrome 99.0.4844.51,1536x864,1536x722,Part 1 completed,Pics_Only_Dutch,5,Part 1 completed,,Accuracy_level_1,,/task/320041/5/asset/key.png,,,j,image-keyboard-response,8,45317,0.0-1.1-1.3,,,test,,1.05,,0.10726666666666666
10,1647196246819,13/03/2022 18:30:46,1647196246680,1,13/03/2022 19:30:46,73265,15,task-yesg,,20346623,BLIND,6034899,Intro Experiment: General explanations,complete,,,computer,Desktop or Laptop,Windows 10,Chrome 99.0.4844.51,1536x864,1536x722,Part 1 completed,Pics_Only_Dutch,5,Part 1 completed,,Accuracy_level_1,,"<span style=""color:red;font-size:50px;font-weight: bold;"">FOUT!</span>",,,,html-keyboard-response,9,45521,0.0-1.1-2.3-0.3,,,,,,,
11,1647196246929,13/03/2022 18:30:46,1647196246783,1,13/03/2022 19:30:46,73265,15,task-yesg,,20346623,BLIND,6034899,Intro Experiment: General explanations,complete,,,computer,Desktop or Laptop,Windows 10,Chrome 99.0.4844.51,1536x864,1536x722,Part 1 completed,Pics_Only_Dutch,5,Part 1 completed,,Accuracy_level_1,,"<div style=""font-size:60px;"">  </div>",,,,html-keyboard-response,10,45624,0.0-1.2-0.4,,,,,,,
12,1647196248444,13/03/2022 18:30:48,1647196248286,1,13/03/2022 19:30:48,73265,15,task-yesg,,20346623,BLIND,6034899,Intro Experiment: General explanations,complete,,,computer,Desktop or Laptop,Windows 10,Chrome 99.0.4844.51,1536x864,1536x722,Part 1 completed,Pics_Only_Dutch,5,Part 1 completed,,Accuracy_level_1,1183.5,/task/320041/5/asset/plane.jpg,,,f,image-keyboard-response,11,47127,0.0-1.2-1.4,,,test,,0.5599999999999999,,0.13743333333333332
13,1647196248538,13/03/2022 18:30:48,1647196248388,1,13/03/2022 19:30:48,73265,15,task-yesg,,20346623,BLIND,6034899,Intro Experiment: General explanations,complete,,,computer,Desktop or Laptop,Windows 10,Chrome 99.0.4844.51,1536x864,1536x722,Part 1 completed,Pics_Only_Dutch,5,Part 1 completed,,Accuracy_level_1,,"<div style=""font-size:60px;"">  </div>",,,,html-keyboard-response,12,47229,0.0-1.2-0.5,,,,,,,
14,1647196250041,13/03/2022 18:30:50,1647196249892,1,13/03/2022 19:30:49,73265,15,task-yesg,,20346623,BLIND,6034899,Intro Experiment: General explanations,complete,,,computer,Desktop or Laptop,Windows 10,Chrome 99.0.4844.51,1536x864,1536x722,Part 1 completed,Pics_Only_Dutch,5,Part 1 completed,,Accuracy_level_1,554.2000000029802,/task/320041/5/asset/comb.jpg,,,j,image-keyboard-response,13,48733,0.0-1.2-1.5,,,test,,0.5,,0.1642
15,1647196250151,13/03/2022 18:30:50,1647196249996,1,13/03/2022 19:30:49,73265,15,task-yesg,,20346623,BLIND,6034899,Intro Experiment: General explanations,complete,,,computer,Desktop or Laptop,Windows 10,Chrome 99.0.4844.51,1536x864,1536x722,Part 1 completed,Pics_Only_Dutch,5,Part 1 completed,,Accuracy_level_1,,"<div style=""font-size:60px;"">  </div>",,,,html-keyboard-response,14,48837,0.0-1.3-0.6,,,,,,,
16,1647196251641,13/03/2022 18:30:51,1647196251499,1,13/03/2022 19:30:51,73265,15,task-yesg,,20346623,BLIND,6034899,Intro Experiment: General explanations,complete,,,computer,Desktop or Laptop,Windows 10,Chrome 99.0.4844.51,1536x864,1536x722,Part 1 completed,Pics_Only_Dutch,5,Part 1 completed,,Accuracy_level_1,886.5,/task/320041/5/asset/glass.jpg,,,j,image-keyboard-response,15,50340,0.0-1.3-1.6,,,test,,0.3888888888888889,,0.19098333333333334
17,1647196251842,13/03/2022 18:30:51,1647196251702,1,13/03/2022 19:30:51,73265,15,task-yesg,,20346623,BLIND,6034899,Intro Experiment: General explanations,complete,,,computer,Desktop or Laptop,Windows 10,Chrome 99.0.4844.51,1536x864,1536x722,Part 1 completed,Pics_Only_Dutch,5,Part 1 completed,,Accuracy_level_1,,"<span style=""color:red;font-size:50px;font-weight: bold;"">FOUT!</span>",,,,html-keyboard-response,16,50543,0.0-1.3-2.6-0.6,,,,,,,
18,1647196251953,13/03/2022 18:30:51,1647196251805,1,13/03/2022 19:30:51,73265,15,task-yesg,,20346623,BLIND,6034899,Intro Experiment: General explanations,complete,,,computer,Desktop or Laptop,Windows 10,Chrome 99.0.4844.51,1536x864,1536x722,Part 1 completed,Pics_Only_Dutch,5,Part 1 completed,,Accuracy_level_1,,"<div style=""font-size:60px;"">  </div>",,,,html-keyboard-response,17,50646,0.0-1.3-0.7,,,,,,,
19,1647196253459,13/03/2022 18:30:53,1647196253308,1,13/03/2022 19:30:53,73265,15,task-yesg,,20346623,BLIND,6034899,Intro Experiment: General explanations,complete,,,computer,Desktop or Laptop,Windows 10,Chrome 99.0.4844.51,1536x864,1536x722,Part 1 completed,Pics_Only_Dutch,5,Part 1 completed,,Accuracy_level_1,663.2000000029802,/task/320041/5/asset/elephant.jpg,,,f,image-keyboard-response,18,52149,0.0-1.3-1.7,,,test,,0.35000000000000003,,0.22113333333333332
1,1647169597649,13/03/2022 11:06:37,1647169599521,1,13/03/2022 12:06:39,73265,15,task-yesg,,20338054,BLIND,6032158,Intro Experiment: General explanations,complete,,,computer,Desktop or Laptop,Windows 10,Chrome 99.0.4844.51,1366x768,1366x657,Part 1 completed,Pics_Only_Dutch,5,Part 1 completed,,Accuracy_level_1,52554.80000001192,,,,,instructions,0,52567,0.0-0.0,,,,,,,
2,1647169597749,13/03/2022 11:06:37,1647169599645,1,13/03/2022 12:06:39,73265,15,task-yesg,,20338054,BLIND,6032158,Intro Experiment: General explanations,complete,,,computer,Desktop or Laptop,Windows 10,Chrome 99.0.4844.51,1366x768,1366x657,Part 1 completed,Pics_Only_Dutch,5,Part 1 completed,,Accuracy_level_1,,"<div style=""font-size:60px;"">  </div>",,,,html-keyboard-response,1,52692,0.0-1.0-0.0,,,,,,,
3,1647169599232,13/03/2022 11:06:39,1647169601157,1,13/03/2022 12:06:41,73265,15,task-yesg,,20338054,BLIND,6032158,Intro Experiment: General explanations,complete,,,computer,Desktop or Laptop,Windows 10,Chrome 99.0.4844.51,1366x768,1366x657,Part 1 completed,Pics_Only_Dutch,5,Part 1 completed,,Accuracy_level_1,,/task/320041/5/asset/house.jpg,,,f,image-keyboard-response,2,54203,0.0-1.0-1.0,,,test,,0,,0.027283333333333333
4,1647169599311,13/03/2022 11:06:39,1647169601269,1,13/03/2022 12:06:41,73265,15,task-yesg,,20338054,BLIND,6032158,Intro Experiment: General explanations,complete,,,computer,Desktop or Laptop,Windows 10,Chrome 99.0.4844.51,1366x768,1366x657,Part 1 completed,Pics_Only_Dutch,5,Part 1 completed,,Accuracy_level_1,,"<div style=""font-size:60px;"">  </div>",,,,html-keyboard-response,3,54317,0.0-1.0-0.1,,,,,,,
5,1647169600819,13/03/2022 11:06:40,1647169602774,1,13/03/2022 12:06:42,73265,15,task-yesg,,20338054,BLIND,6032158,Intro Experiment: General explanations,complete,,,computer,Desktop or Laptop,Windows 10,Chrome 99.0.4844.51,1366x768,1366x657,Part 1 completed,Pics_Only_Dutch,5,Part 1 completed,,Accuracy_level_1,,/task/320041/5/asset/plane.jpg,,,f,image-keyboard-response,4,55820,0.0-1.0-1.1,,,test,,0,,0.054233333333333335
6,1647169600957,13/03/2022 11:06:40,1647169602882,1,13/03/2022 12:06:42,73265,15,task-yesg,,20338054,BLIND,6032158,Intro Experiment: General explanations,complete,,,computer,Desktop or Laptop,Windows 10,Chrome 99.0.4844.51,1366x768,1366x657,Part 1 completed,Pics_Only_Dutch,5,Part 1 completed,,Accuracy_level_1,,"<div style=""font-size:60px;"">  </div>",,,,html-keyboard-response,5,55929,0.0-1.1-0.2,,,,,,,
7,1647169602441,13/03/2022 11:06:42,1647169604390,1,13/03/2022 12:06:44,73265,15,task-yesg,,20338054,BLIND,6032158,Intro Experiment: General explanations,complete,,,computer,Desktop or Laptop,Windows 10,Chrome 99.0.4844.51,1366x768,1366x657,Part 1 completed,Pics_Only_Dutch,5,Part 1 completed,,Accuracy_level_1,23,/task/320041/5/asset/glass.jpg,,,j,image-keyboard-response,6,57437,0.0-1.1-1.2,,,test,,,,0.08116666666666666
8,1647169602647,13/03/2022 11:06:42,1647169604598,1,13/03/2022 12:06:44,73265,15,task-yesg,,20338054,BLIND,6032158,Intro Experiment: General explanations,complete,,,computer,Desktop or Laptop,Windows 10,Chrome 99.0.4844.51,1366x768,1366x657,Part 1 completed,Pics_Only_Dutch,5,Part 1 completed,,Accuracy_level_1,,"<span style=""color:red;font-size:50px;font-weight: bold;"">FOUT!</span>",,,,html-keyboard-response,7,57646,0.0-1.1-2.2-0.2,,,,,,,
9,1647169602753,13/03/2022 11:06:42,1647169604705,1,13/03/2022 12:06:44,73265,15,task-yesg,,20338054,BLIND,6032158,Intro Experiment: General explanations,complete,,,computer,Desktop or Laptop,Windows 10,Chrome 99.0.4844.51,1366x768,1366x657,Part 1 completed,Pics_Only_Dutch,5,Part 1 completed,,Accuracy_level_1,,"<div style=""font-size:60px;"">  </div>",,,,html-keyboard-response,8,57753,0.0-1.1-0.3,,,,,,,
10,1647169604272,13/03/2022 11:06:44,1647169606214,1,13/03/2022 12:06:46,73265,15,task-yesg,,20338054,BLIND,6032158,Intro Experiment: General explanations,complete,,,computer,Desktop or Laptop,Windows 10,Chrome 99.0.4844.51,1366x768,1366x657,Part 1 completed,Pics_Only_Dutch,5,Part 1 completed,,Accuracy_level_1,1055.800000011921,/task/320041/5/asset/pear.jpg,,,j,image-keyboard-response,9,59261,0.0-1.1-1.3,,,test,,0.2333333333333333,,0.11156666666666666
11,1647169604363,13/03/2022 11:06:44,1647169606323,1,13/03/2022 12:06:46,73265,15,task-yesg,,20338054,BLIND,6032158,Intro Experiment: General explanations,complete,,,computer,Desktop or Laptop,Windows 10,Chrome 99.0.4844.51,1366x768,1366x657,Part 1 completed,Pics_Only_Dutch,5,Part 1 completed,,Accuracy_level_1,,"<div style=""font-size:60px;"">  </div>",,,,html-keyboard-response,10,59371,0.0-1.2-0.4,,,,,,,
12,1647169605866,13/03/2022 11:06:45,1647169607829,1,13/03/2022 12:06:47,73265,15,task-yesg,,20338054,BLIND,6032158,Intro Experiment: General explanations,complete,,,computer,Desktop or Laptop,Windows 10,Chrome 99.0.4844.51,1366x768,1366x657,Part 1 completed,Pics_Only_Dutch,5,Part 1 completed,,Accuracy_level_1,692.0999999940395,/task/320041/5/asset/glass.jpg,,,j,image-keyboard-response,11,60876,0.0-1.2-1.4,,,test,,0.27999999999999997,,0.13848333333333335
13,1647169605984,13/03/2022 11:06:45,1647169607935,1,13/03/2022 12:06:47,73265,15,task-yesg,,20338054,BLIND,6032158,Intro Experiment: General explanations,complete,,,computer,Desktop or Laptop,Windows 10,Chrome 99.0.4844.51,1366x768,1366x657,Part 1 completed,Pics_Only_Dutch,5,Part 1 completed,,Accuracy_level_1,,"<div style=""font-size:60px;"">  </div>",,,,html-keyboard-response,12,60983,0.0-1.2-0.5,,,,,,,
14,1647169607495,13/03/2022 11:06:47,1647169609441,1,13/03/2022 12:06:49,73265,15,task-yesg,,20338054,BLIND,6032158,Intro Experiment: General explanations,complete,,,computer,Desktop or Laptop,Windows 10,Chrome 99.0.4844.51,1366x768,1366x657,Part 1 completed,Pics_Only_Dutch,5,Part 1 completed,,Accuracy_level_1,791.6999999880791,/task/320041/5/asset/elephant.jpg,,,f,image-keyboard-response,13,62488,0.0-1.2-1.5,,,test,,0.3,,0.16535
15,1647169607600,13/03/2022 11:06:47,1647169609549,1,13/03/2022 12:06:49,73265,15,task-yesg,,20338054,BLIND,6032158,Intro Experiment: General explanations,complete,,,computer,Desktop or Laptop,Windows 10,Chrome 99.0.4844.51,1366x768,1366x657,Part 1 completed,Pics_Only_Dutch,5,Part 1 completed,,Accuracy_level_1,,"<div style=""font-size:60px;"">  </div>",,,,html-keyboard-response,14,62597,0.0-1.3-0.6,,,,,,,
16,1647169609115,13/03/2022 11:06:49,1647169611057,1,13/03/2022 12:06:51,73265,15,task-yesg,,20338054,BLIND,6032158,Intro Experiment: General explanations,complete,,,computer,Desktop or Laptop,Windows 10,Chrome 99.0.4844.51,1366x768,1366x657,Part 1 completed,Pics_Only_Dutch,5,Part 1 completed,,Accuracy_level_1,926.9000000059605,/task/320041/5/asset/pear.jpg,,,j,image-keyboard-response,15,64103,0.0-1.3-1.6,,,test,,0.3111111111111111,,0.19228333333333333
17,1647169609213,13/03/2022 11:06:49,1647169611177,1,13/03/2022 12:06:51,73265,15,task-yesg,,20338054,BLIND,6032158,Intro Experiment: General explanations,complete,,,computer,Desktop or Laptop,Windows 10,Chrome 99.0.4844.51,1366x768,1366x657,Part 1 completed,Pics_Only_Dutch,5,Part 1 completed,,Accuracy_level_1,,"<div style=""font-size:60px;"">  </div>",,,,html-keyboard-response,16,64225,0.0-1.3-0.7,,,,,,,
18,1647169610736,13/03/2022 11:06:50,1647169612683,1,13/03/2022 12:06:52,73265,15,task-yesg,,20338054,BLIND,6032158,Intro Experiment: General explanations,complete,,,computer,Desktop or Laptop,Windows 10,Chrome 99.0.4844.51,1366x768,1366x657,Part 1 completed,Pics_Only_Dutch,5,Part 1 completed,,Accuracy_level_1,687.1999999880791,/task/320041/5/asset/truck.jpg,,,f,image-keyboard-response,17,65730,0.0-1.3-1.7,,,test,,0.3181818181818182,,0.21938333333333335
1,1647007379195,11/03/2022 14:02:59,1647007379030,1,11/03/2022 15:02:59,73265,15,task-yesg,,20300967,BLIND,6021527,Intro Experiment: General explanations,complete,,,computer,Desktop or Laptop,Windows 10,Chrome 99.0.4844.51,1536x864,1536x722,Part 1 completed,Pics_Only_Dutch,5,Part 1 completed,,Accuracy_level_1,33301.5,,,,,instructions,0,33304,0.0-0.0,,,,,,,
2,1647007379293,11/03/2022 14:02:59,1647007379142,1,11/03/2022 15:02:59,73265,15,task-yesg,,20300967,BLIND,6021527,Intro Experiment: General explanations,complete,,,computer,Desktop or Laptop,Windows 10,Chrome 99.0.4844.51,1536x864,1536x722,Part 1 completed,Pics_Only_Dutch,5,Part 1 completed,,Accuracy_level_1,,"<div style=""font-size:60px;"">  </div>",,,,html-keyboard-response,1,33417,0.0-1.0-0.0,,,,,,,
3,1647007380715,11/03/2022 14:03:00,1647007380646,1,11/03/2022 15:03:00,73265,15,task-yesg,,20300967,BLIND,6021527,Intro Experiment: General explanations,complete,,,computer,Desktop or Laptop,Windows 10,Chrome 99.0.4844.51,1536x864,1536x722,Part 1 completed,Pics_Only_Dutch,5,Part 1 completed,,Accuracy_level_1,594.2999999523163,/task/320041/5/asset/pear.jpg,,,j,image-keyboard-response,2,34920,0.0-1.0-1.0,,,test,,-0.175,,0.026933333333333333
4,1647007380842,11/03/2022 14:03:00,1647007380748,1,11/03/2022 15:03:00,73265,15,task-yesg,,20300967,BLIND,6021527,Intro Experiment: General explanations,complete,,,computer,Desktop or Laptop,Windows 10,Chrome 99.0.4844.51,1536x864,1536x722,Part 1 completed,Pics_Only_Dutch,5,Part 1 completed,,Accuracy_level_1,,"<div style=""font-size:60px;"">  </div>",,,,html-keyboard-response,3,35023,0.0-1.0-0.1,,,,,,,
5,1647007382329,11/03/2022 14:03:02,1647007382252,1,11/03/2022 15:03:02,73265,15,task-yesg,,20300967,BLIND,6021527,Intro Experiment: General explanations,complete,,,computer,Desktop or Laptop,Windows 10,Chrome 99.0.4844.51,1536x864,1536x722,Part 1 completed,Pics_Only_Dutch,5,Part 1 completed,,Accuracy_level_1,640.1000001430511,/task/320041/5/asset/house.jpg,,,f,image-keyboard-response,4,36527,0.0-1.0-1.1,,,test,,-0.7,,0.0537
6,1647007382451,11/03/2022 14:03:02,1647007382355,1,11/03/2022 15:03:02,73265,15,task-yesg,,20300967,BLIND,6021527,Intro Experiment: General explanations,complete,,,computer,Desktop or Laptop,Windows 10,Chrome 99.0.4844.51,1536x864,1536x722,Part 1 completed,Pics_Only_Dutch,5,Part 1 completed,,Accuracy_level_1,,"<div style=""font-size:60px;"">  </div>",,,,html-keyboard-response,5,36630,0.0-1.1-0.2,,,,,,,
7,1647007383938,11/03/2022 14:03:03,1647007383860,1,11/03/2022 15:03:03,73265,15,task-yesg,,20300967,BLIND,6021527,Intro Experiment: General explanations,complete,,,computer,Desktop or Laptop,Windows 10,Chrome 99.0.4844.51,1536x864,1536x722,Part 1 completed,Pics_Only_Dutch,5,Part 1 completed,,Accuracy_level_1,720.4000000953674,/task/320041/5/asset/comb.jpg,,,j,image-keyboard-response,6,38135,0.0-1.1-1.2,,,test,,,,0.0805
8,1647007384076,11/03/2022 14:03:04,1647007383964,1,11/03/2022 15:03:03,73265,15,task-yesg,,20300967,BLIND,6021527,Intro Experiment: General explanations,complete,,,computer,Desktop or Laptop,Windows 10,Chrome 99.0.4844.51,1536x864,1536x722,Part 1 completed,Pics_Only_Dutch,5,Part 1 completed,,Accuracy_level_1,,"<div style=""font-size:60px;"">  </div>",,,,html-keyboard-response,7,38239,0.0-1.1-0.3,,,,,,,
9,1647007385545,11/03/2022 14:03:05,1647007385467,1,11/03/2022 15:03:05,73265,15,task-yesg,,20300967,BLIND,6021527,Intro Experiment: General explanations,complete,,,computer,Desktop or Laptop,Windows 10,Chrome 99.0.4844.51,1536x864,1536x722,Part 1 completed,Pics_Only_Dutch,5,Part 1 completed,,Accuracy_level_1,,/task/320041/5/asset/key.png,,,j,image-keyboard-response,8,39742,0.0-1.1-1.3,,,test,,1.05,,0.10728333333333333
10,1647007385740,11/03/2022 14:03:05,1647007385671,1,11/03/2022 15:03:05,73265,15,task-yesg,,20300967,BLIND,6021527,Intro Experiment: General explanations,complete,,,computer,Desktop or Laptop,Windows 10,Chrome 99.0.4844.51,1536x864,1536x722,Part 1 completed,Pics_Only_Dutch,5,Part 1 completed,,Accuracy_level_1,,"<span style=""color:red;font-size:50px;font-weight: bold;"">FOUT!</span>",,,,html-keyboard-response,9,39946,0.0-1.1-2.3-0.3,,,,,,,
11,1647007385842,11/03/2022 14:03:05,1647007385774,1,11/03/2022 15:03:05,73265,15,task-yesg,,20300967,BLIND,6021527,Intro Experiment: General explanations,complete,,,computer,Desktop or Laptop,Windows 10,Chrome 99.0.4844.51,1536x864,1536x722,Part 1 completed,Pics_Only_Dutch,5,Part 1 completed,,Accuracy_level_1,,"<div style=""font-size:60px;"">  </div>",,,,html-keyboard-response,10,40049,0.0-1.2-0.4,,,,,,,
12,1647007387351,11/03/2022 14:03:07,1647007387278,1,11/03/2022 15:03:07,73265,15,task-yesg,,20300967,BLIND,6021527,Intro Experiment: General explanations,complete,,,computer,Desktop or Laptop,Windows 10,Chrome 99.0.4844.51,1536x864,1536x722,Part 1 completed,Pics_Only_Dutch,5,Part 1 completed,,Accuracy_level_1,914,/task/320041/5/asset/truck.jpg,,,f,image-keyboard-response,11,41553,0.0-1.2-1.4,,,test,,0.5599999999999999,,0.13746666666666665
13,1647007387451,11/03/2022 14:03:07,1647007387381,1,11/03/2022 15:03:07,73265,15,task-yesg,,20300967,BLIND,6021527,Intro Experiment: General explanations,complete,,,computer,Desktop or Laptop,Windows 10,Chrome 99.0.4844.51,1536x864,1536x722,Part 1 completed,Pics_Only_Dutch,5,Part 1 completed,,Accuracy_level_1,,"<div style=""font-size:60px;"">  </div>",,,,html-keyboard-response,12,41656,0.0-1.2-0.5,,,,,,,
14,1647007388960,11/03/2022 14:03:08,1647007388884,1,11/03/2022 15:03:08,73265,15,task-yesg,,20300967,BLIND,6021527,Intro Experiment: General explanations,complete,,,computer,Desktop or Laptop,Windows 10,Chrome 99.0.4844.51,1536x864,1536x722,Part 1 completed,Pics_Only_Dutch,5,Part 1 completed,,Accuracy_level_1,573.2999999523163,/task/320041/5/asset/truck.jpg,,,f,image-keyboard-response,13,43159,0.0-1.2-1.5,,,test,,0.5,,0.16423333333333334
15,1647007389061,11/03/2022 14:03:09,1647007388987,1,11/03/2022 15:03:08,73265,15,task-yesg,,20300967,BLIND,6021527,Intro Experiment: General explanations,complete,,,computer,Desktop or Laptop,Windows 10,Chrome 99.0.4844.51,1536x864,1536x722,Part 1 completed,Pics_Only_Dutch,5,Part 1 completed,,Accuracy_level_1,,"<div style=""font-size:60px;"">  </div>",,,,html-keyboard-response,14,43262,0.0-1.3-0.6,,,,,,,
16,1647007390576,11/03/2022 14:03:10,1647007390491,1,11/03/2022 15:03:10,73265,15,task-yesg,,20300967,BLIND,6021527,Intro Experiment: General explanations,complete,,,computer,Desktop or Laptop,Windows 10,Chrome 99.0.4844.51,1536x864,1536x722,Part 1 completed,Pics_Only_Dutch,5,Part 1 completed,,Accuracy_level_1,505,/task/320041/5/asset/comb.jpg,,,j,image-keyboard-response,15,44766,0.0-1.3-1.6,,,test,,0.4666666666666667,,0.19101666666666667
17,1647007390663,11/03/2022 14:03:10,1647007390594,1,11/03/2022 15:03:10,73265,15,task-yesg,,20300967,BLIND,6021527,Intro Experiment: General explanations,complete,,,computer,Desktop or Laptop,Windows 10,Chrome 99.0.4844.51,1536x864,1536x722,Part 1 completed,Pics_Only_Dutch,5,Part 1 completed,,Accuracy_level_1,,"<div style=""font-size:60px;"">  </div>",,,,html-keyboard-response,16,44869,0.0-1.3-0.7,,,,,,,
18,1647007392179,11/03/2022 14:03:12,1647007392098,1,11/03/2022 15:03:12,73265,15,task-yesg,,20300967,BLIND,6021527,Intro Experiment: General explanations,complete,,,computer,Desktop or Laptop,Windows 10,Chrome 99.0.4844.51,1536x864,1536x722,Part 1 completed,Pics_Only_Dutch,5,Part 1 completed,,Accuracy_level_1,873.6000001430511,/task/320041/5/asset/truck.jpg,,,f,image-keyboard-response,17,46373,0.0-1.3-1.7,,,test,,0.4454545454545455,,0.2178
1,1646924791098,10/03/2022 15:06:31,1646924791034,1,10/03/2022 16:06:31,73265,15,task-yesg,,20273627,BLIND,6013546,Intro Experiment: General explanations,complete,,,computer,Desktop or Laptop,Windows 10,Chrome 98.0.4758.102,1536x864,1536x714,Part 1 completed,Pics_Only_Dutch,5,Part 1 completed,,Accuracy_level_1,35609.200000047684,,,,,instructions,0,35618,0.0-0.0,,,,,,,
2,1646924791176,10/03/2022 15:06:31,1646924791155,1,10/03/2022 16:06:31,73265,15,task-yesg,,20273627,BLIND,6013546,Intro Experiment: General explanations,complete,,,computer,Desktop or Laptop,Windows 10,Chrome 98.0.4758.102,1536x864,1536x714,Part 1 completed,Pics_Only_Dutch,5,Part 1 completed,,Accuracy_level_1,,"<div style=""font-size:60px;"">  </div>",,,,html-keyboard-response,1,35740,0.0-1.0-0.0,,,,,,,
3,1646924792698,10/03/2022 15:06:32,1646924792671,1,10/03/2022 16:06:32,73265,15,task-yesg,,20273627,BLIND,6013546,Intro Experiment: General explanations,complete,,,computer,Desktop or Laptop,Windows 10,Chrome 98.0.4758.102,1536x864,1536x714,Part 1 completed,Pics_Only_Dutch,5,Part 1 completed,,Accuracy_level_1,,/task/320041/5/asset/pear.jpg,,,j,image-keyboard-response,2,37256,0.0-1.0-1.0,,,test,,0,,0.0273
4,1646924792790,10/03/2022 15:06:32,1646924792777,1,10/03/2022 16:06:32,73265,15,task-yesg,,20273627,BLIND,6013546,Intro Experiment: General explanations,complete,,,computer,Desktop or Laptop,Windows 10,Chrome 98.0.4758.102,1536x864,1536x714,Part 1 completed,Pics_Only_Dutch,5,Part 1 completed,,Accuracy_level_1,,"<div style=""font-size:60px;"">  </div>",,,,html-keyboard-response,3,37362,0.0-1.0-0.1,,,,,,,
5,1646924794290,10/03/2022 15:06:34,1646924794280,1,10/03/2022 16:06:34,73265,15,task-yesg,,20273627,BLIND,6013546,Intro Experiment: General explanations,complete,,,computer,Desktop or Laptop,Windows 10,Chrome 98.0.4758.102,1536x864,1536x714,Part 1 completed,Pics_Only_Dutch,5,Part 1 completed,,Accuracy_level_1,1363,/task/320041/5/asset/plane.jpg,,,f,image-keyboard-response,4,38865,0.0-1.0-1.1,,,test,,-0.35,,0.05411666666666667
6,1646924794420,10/03/2022 15:06:34,1646924794388,1,10/03/2022 16:06:34,73265,15,task-yesg,,20273627,BLIND,6013546,Intro Experiment: General explanations,complete,,,computer,Desktop or Laptop,Windows 10,Chrome 98.0.4758.102,1536x864,1536x714,Part 1 completed,Pics_Only_Dutch,5,Part 1 completed,,Accuracy_level_1,,"<div style=""font-size:60px;"">  </div>",,,,html-keyboard-response,5,38973,0.0-1.1-0.2,,,,,,,
7,1646924795900,10/03/2022 15:06:35,1646924795896,1,10/03/2022 16:06:35,73265,15,task-yesg,,20273627,BLIND,6013546,Intro Experiment: General explanations,complete,,,computer,Desktop or Laptop,Windows 10,Chrome 98.0.4758.102,1536x864,1536x714,Part 1 completed,Pics_Only_Dutch,5,Part 1 completed,,Accuracy_level_1,849.1000000238419,/task/320041/5/asset/elephant.jpg,,,f,image-keyboard-response,6,40480,0.0-1.1-1.2,,,test,,,,0.08105
8,1646924796030,10/03/2022 15:06:36,1646924796004,1,10/03/2022 16:06:36,73265,15,task-yesg,,20273627,BLIND,6013546,Intro Experiment: General explanations,complete,,,computer,Desktop or Laptop,Windows 10,Chrome 98.0.4758.102,1536x864,1536x714,Part 1 completed,Pics_Only_Dutch,5,Part 1 completed,,Accuracy_level_1,,"<div style=""font-size:60px;"">  </div>",,,,html-keyboard-response,7,40589,0.0-1.1-0.3,,,,,,,
9,1646924797528,10/03/2022 15:06:37,1646924797514,1,10/03/2022 16:06:37,73265,15,task-yesg,,20273627,BLIND,6013546,Intro Experiment: General explanations,complete,,,computer,Desktop or Laptop,Windows 10,Chrome 98.0.4758.102,1536x864,1536x714,Part 1 completed,Pics_Only_Dutch,5,Part 1 completed,,Accuracy_level_1,1014.7999999523163,/task/320041/5/asset/glass.jpg,,,j,image-keyboard-response,8,42098,0.0-1.1-1.3,,,test,,1.05,,0.10801666666666666
10,1646924797626,10/03/2022 15:06:37,1646924797623,1,10/03/2022 16:06:37,73265,15,task-yesg,,20273627,BLIND,6013546,Intro Experiment: General explanations,complete,,,computer,Desktop or Laptop,Windows 10,Chrome 98.0.4758.102,1536x864,1536x714,Part 1 completed,Pics_Only_Dutch,5,Part 1 completed,,Accuracy_level_1,,"<div style=""font-size:60px;"">  </div>",,,,html-keyboard-response,9,42208,0.0-1.2-0.4,,,,,,,
11,1646924799146,10/03/2022 15:06:39,1646924799134,1,10/03/2022 16:06:39,73265,15,task-yesg,,20273627,BLIND,6013546,Intro Experiment: General explanations,complete,,,computer,Desktop or Laptop,Windows 10,Chrome 98.0.4758.102,1536x864,1536x714,Part 1 completed,Pics_Only_Dutch,5,Part 1 completed,,Accuracy_level_1,745.7999999523163,/task/320041/5/asset/plane.jpg,,,f,image-keyboard-response,10,43719,0.0-1.2-1.4,,,test,,0.7,,0.13501666666666667
12,1646924799246,10/03/2022 15:06:39,1646924799242,1,10/03/2022 16:06:39,73265,15,task-yesg,,20273627,BLIND,6013546,Intro Experiment: General explanations,complete,,,computer,Desktop or Laptop,Windows 10,Chrome 98.0.4758.102,1536x864,1536x714,Part 1 completed,Pics_Only_Dutch,5,Part 1 completed,,Accuracy_level_1,,"<div style=""font-size:60px;"">  </div>",,,,html-keyboard-response,11,43827,0.0-1.2-0.5,,,,,,,
13,1646924800747,10/03/2022 15:06:40,1646924800746,1,10/03/2022 16:06:40,73265,15,task-yesg,,20273627,BLIND,6013546,Intro Experiment: General explanations,complete,,,computer,Desktop or Laptop,Windows 10,Chrome 98.0.4758.102,1536x864,1536x714,Part 1 completed,Pics_Only_Dutch,5,Part 1 completed,,Accuracy_level_1,565.5999999046326,/task/320041/5/asset/pear.jpg,,,j,image-keyboard-response,12,45331,0.0-1.2-1.5,,,test,,0.5833333333333334,,0.16188333333333332
14,1646924800867,10/03/2022 15:06:40,1646924800850,1,10/03/2022 16:06:40,73265,15,task-yesg,,20273627,BLIND,6013546,Intro Experiment: General explanations,complete,,,computer,Desktop or Laptop,Windows 10,Chrome 98.0.4758.102,1536x864,1536x714,Part 1 completed,Pics_Only_Dutch,5,Part 1 completed,,Accuracy_level_1,,"<div style=""font-size:60px;"">  </div>",,,,html-keyboard-response,13,45435,0.0-1.3-0.6,,,,,,,
15,1646924802370,10/03/2022 15:06:42,1646924802358,1,10/03/2022 16:06:42,73265,15,task-yesg,,20273627,BLIND,6013546,Intro Experiment: General explanations,complete,,,computer,Desktop or Laptop,Windows 10,Chrome 98.0.4758.102,1536x864,1536x714,Part 1 completed,Pics_Only_Dutch,5,Part 1 completed,,Accuracy_level_1,849.3999999761581,/task/320041/5/asset/house.jpg,,,f,image-keyboard-response,14,46943,0.0-1.3-1.6,,,test,,0.525,,0.18875
16,1646924802465,10/03/2022 15:06:42,1646924802465,1,10/03/2022 16:06:42,73265,15,task-yesg,,20273627,BLIND,6013546,Intro Experiment: General explanations,complete,,,computer,Desktop or Laptop,Windows 10,Chrome 98.0.4758.102,1536x864,1536x714,Part 1 completed,Pics_Only_Dutch,5,Part 1 completed,,Accuracy_level_1,,"<div style=""font-size:60px;"">  </div>",,,,html-keyboard-response,15,47050,0.0-1.3-0.7,,,,,,,
17,1646924803985,10/03/2022 15:06:43,1646924803975,1,10/03/2022 16:06:43,73265,15,task-yesg,,20273627,BLIND,6013546,Intro Experiment: General explanations,complete,,,computer,Desktop or Laptop,Windows 10,Chrome 98.0.4758.102,1536x864,1536x714,Part 1 completed,Pics_Only_Dutch,5,Part 1 completed,,Accuracy_level_1,547.1000000238419,/task/320041/5/asset/plane.jpg,,,f,image-keyboard-response,16,48560,0.0-1.3-1.7,,,test,,0.49000000000000005,,0.2157
1,1646818273303,09/03/2022 09:31:13,1646818273784,1,09/03/2022 10:31:13,73265,15,task-yesg,,20221518,BLIND,5998568,Intro Experiment: General explanations,complete,,,computer,Desktop or Laptop,Windows 10,Edge 99.0.1150.30,1494x934,1494x815,Part 1 completed,Pics_Only_Dutch,5,Part 1 completed,,Accuracy_level_1,58290.10000002384,,,,,instructions,0,58293,0.0-0.0,,,,,,,
2,1646818273397,09/03/2022 09:31:13,1646818273892,1,09/03/2022 10:31:13,73265,15,task-yesg,,20221518,BLIND,5998568,Intro Experiment: General explanations,complete,,,computer,Desktop or Laptop,Windows 10,Edge 99.0.1150.30,1494x934,1494x815,Part 1 completed,Pics_Only_Dutch,5,Part 1 completed,,Accuracy_level_1,,"<div style=""font-size:60px;"">  </div>",,,,html-keyboard-response,1,58402,0.0-1.0-0.0,,,,,,,
3,1646818274854,09/03/2022 09:31:14,1646818275395,1,09/03/2022 10:31:15,73265,15,task-yesg,,20221518,BLIND,5998568,Intro Experiment: General explanations,complete,,,computer,Desktop or Laptop,Windows 10,Edge 99.0.1150.30,1494x934,1494x815,Part 1 completed,Pics_Only_Dutch,5,Part 1 completed,,Accuracy_level_1,1105.8999999761581,/task/320041/5/asset/pear.jpg,,,j,image-keyboard-response,2,59905,0.0-1.0-1.0,,,test,,-0.175,,0.026866666666666667
4,1646818274953,09/03/2022 09:31:14,1646818275498,1,09/03/2022 10:31:15,73265,15,task-yesg,,20221518,BLIND,5998568,Intro Experiment: General explanations,complete,,,computer,Desktop or Laptop,Windows 10,Edge 99.0.1150.30,1494x934,1494x815,Part 1 completed,Pics_Only_Dutch,5,Part 1 completed,,Accuracy_level_1,,"<div style=""font-size:60px;"">  </div>",,,,html-keyboard-response,3,60008,0.0-1.0-0.1,,,,,,,
5,1646818276453,09/03/2022 09:31:16,1646818277000,1,09/03/2022 10:31:17,73265,15,task-yesg,,20221518,BLIND,5998568,Intro Experiment: General explanations,complete,,,computer,Desktop or Laptop,Windows 10,Edge 99.0.1150.30,1494x934,1494x815,Part 1 completed,Pics_Only_Dutch,5,Part 1 completed,,Accuracy_level_1,799.5,/task/320041/5/asset/truck.jpg,,,f,image-keyboard-response,4,61510,0.0-1.0-1.1,,,test,,-0.7,,0.05361666666666667
6,1646818276567,09/03/2022 09:31:16,1646818277102,1,09/03/2022 10:31:17,73265,15,task-yesg,,20221518,BLIND,5998568,Intro Experiment: General explanations,complete,,,computer,Desktop or Laptop,Windows 10,Edge 99.0.1150.30,1494x934,1494x815,Part 1 completed,Pics_Only_Dutch,5,Part 1 completed,,Accuracy_level_1,,"<div style=""font-size:60px;"">  </div>",,,,html-keyboard-response,5,61612,0.0-1.1-0.2,,,,,,,
7,1646818278086,09/03/2022 09:31:18,1646818278616,1,09/03/2022 10:31:18,73265,15,task-yesg,,20221518,BLIND,5998568,Intro Experiment: General explanations,complete,,,computer,Desktop or Laptop,Windows 10,Edge 99.0.1150.30,1494x934,1494x815,Part 1 completed,Pics_Only_Dutch,5,Part 1 completed,,Accuracy_level_1,936.7000000476837,/task/320041/5/asset/comb.jpg,,,j,image-keyboard-response,6,63126,0.0-1.1-1.2,,,test,,,,0.08055
8,1646818278224,09/03/2022 09:31:18,1646818278718,1,09/03/2022 10:31:18,73265,15,task-yesg,,20221518,BLIND,5998568,Intro Experiment: General explanations,complete,,,computer,Desktop or Laptop,Windows 10,Edge 99.0.1150.30,1494x934,1494x815,Part 1 completed,Pics_Only_Dutch,5,Part 1 completed,,Accuracy_level_1,,"<div style=""font-size:60px;"">  </div>",,,,html-keyboard-response,7,63228,0.0-1.1-0.3,,,,,,,
9,1646818279664,09/03/2022 09:31:19,1646818280222,1,09/03/2022 10:31:20,73265,15,task-yesg,,20221518,BLIND,5998568,Intro Experiment: General explanations,complete,,,computer,Desktop or Laptop,Windows 10,Edge 99.0.1150.30,1494x934,1494x815,Part 1 completed,Pics_Only_Dutch,5,Part 1 completed,,Accuracy_level_1,592.1000000238419,/task/320041/5/asset/truck.jpg,,,f,image-keyboard-response,8,64732,0.0-1.1-1.3,,,test,,1.4,,0.10731666666666667
10,1646818279789,09/03/2022 09:31:19,1646818280332,1,09/03/2022 10:31:20,73265,15,task-yesg,,20221518,BLIND,5998568,Intro Experiment: General explanations,complete,,,computer,Desktop or Laptop,Windows 10,Edge 99.0.1150.30,1494x934,1494x815,Part 1 completed,Pics_Only_Dutch,5,Part 1 completed,,Accuracy_level_1,,"<div style=""font-size:60px;"">  </div>",,,,html-keyboard-response,9,64842,0.0-1.2-0.4,,,,,,,
11,1646818281287,09/03/2022 09:31:21,1646818281835,1,09/03/2022 10:31:21,73265,15,task-yesg,,20221518,BLIND,5998568,Intro Experiment: General explanations,complete,,,computer,Desktop or Laptop,Windows 10,Edge 99.0.1150.30,1494x934,1494x815,Part 1 completed,Pics_Only_Dutch,5,Part 1 completed,,Accuracy_level_1,,/task/320041/5/asset/glass.jpg,,,j,image-keyboard-response,10,66345,0.0-1.2-1.4,,,test,,0.7,,0.1342
12,1646818281490,09/03/2022 09:31:21,1646818282038,1,09/03/2022 10:31:22,73265,15,task-yesg,,20221518,BLIND,5998568,Intro Experiment: General explanations,complete,,,computer,Desktop or Laptop,Windows 10,Edge 99.0.1150.30,1494x934,1494x815,Part 1 completed,Pics_Only_Dutch,5,Part 1 completed,,Accuracy_level_1,,"<span style=""color:red;font-size:50px;font-weight: bold;"">FOUT!</span>",,,,html-keyboard-response,11,66548,0.0-1.2-2.4-0.4,,,,,,,
13,1646818281590,09/03/2022 09:31:21,1646818282140,1,09/03/2022 10:31:22,73265,15,task-yesg,,20221518,BLIND,5998568,Intro Experiment: General explanations,complete,,,computer,Desktop or Laptop,Windows 10,Edge 99.0.1150.30,1494x934,1494x815,Part 1 completed,Pics_Only_Dutch,5,Part 1 completed,,Accuracy_level_1,,"<div style=""font-size:60px;"">  </div>",,,,html-keyboard-response,12,66650,0.0-1.2-0.5,,,,,,,
14,1646818283137,09/03/2022 09:31:23,1646818283643,1,09/03/2022 10:31:23,73265,15,task-yesg,,20221518,BLIND,5998568,Intro Experiment: General explanations,complete,,,computer,Desktop or Laptop,Windows 10,Edge 99.0.1150.30,1494x934,1494x815,Part 1 completed,Pics_Only_Dutch,5,Part 1 completed,,Accuracy_level_1,1137.2999999523163,/task/320041/5/asset/elephant.jpg,,,f,image-keyboard-response,13,68153,0.0-1.2-1.5,,,test,,0.5,,0.16433333333333333
15,1646818283231,09/03/2022 09:31:23,1646818283744,1,09/03/2022 10:31:23,73265,15,task-yesg,,20221518,BLIND,5998568,Intro Experiment: General explanations,complete,,,computer,Desktop or Laptop,Windows 10,Edge 99.0.1150.30,1494x934,1494x815,Part 1 completed,Pics_Only_Dutch,5,Part 1 completed,,Accuracy_level_1,,"<div style=""font-size:60px;"">  </div>",,,,html-keyboard-response,14,68254,0.0-1.3-0.6,,,,,,,
16,1646818284702,09/03/2022 09:31:24,1646818285247,1,09/03/2022 10:31:25,73265,15,task-yesg,,20221518,BLIND,5998568,Intro Experiment: General explanations,complete,,,computer,Desktop or Laptop,Windows 10,Edge 99.0.1150.30,1494x934,1494x815,Part 1 completed,Pics_Only_Dutch,5,Part 1 completed,,Accuracy_level_1,1470.2000000476837,/task/320041/5/asset/house.jpg,,,f,image-keyboard-response,15,69757,0.0-1.3-1.6,,,test,,0.4666666666666667,,0.19106666666666666
17,1646818284796,09/03/2022 09:31:24,1646818285349,1,09/03/2022 10:31:25,73265,15,task-yesg,,20221518,BLIND,5998568,Intro Experiment: General explanations,complete,,,computer,Desktop or Laptop,Windows 10,Edge 99.0.1150.30,1494x934,1494x815,Part 1 completed,Pics_Only_Dutch,5,Part 1 completed,,Accuracy_level_1,,"<div style=""font-size:60px;"">  </div>",,,,html-keyboard-response,16,69859,0.0-1.3-0.7,,,,,,,
18,1646818286315,09/03/2022 09:31:26,1646818286851,1,09/03/2022 10:31:26,73265,15,task-yesg,,20221518,BLIND,5998568,Intro Experiment: General explanations,complete,,,computer,Desktop or Laptop,Windows 10,Edge 99.0.1150.30,1494x934,1494x815,Part 1 completed,Pics_Only_Dutch,5,Part 1 completed,,Accuracy_level_1,642.6999999284744,/task/320041/5/asset/pear.jpg,,,j,image-keyboard-response,17,71361,0.0-1.3-1.7,,,test,,0.4454545454545455,,0.2178
1,1646747598309,08/03/2022 13:53:18,1646747599971,1,08/03/2022 14:53:19,73265,15,task-yesg,,20189754,BLIND,5989210,Intro Experiment: General explanations,complete,,,computer,Desktop or Laptop,Mac OS 10.8.5,Chrome 49.0.2623.112,1920x1080,1920x902,Part 1 completed,Pics_Only_Dutch,5,Part 1 completed,,Accuracy_level_1,28475.055,,,,,instructions,0,28479,0.0-0.0,,,,,,,
2,1646747598419,08/03/2022 13:53:18,1646747600076,1,08/03/2022 14:53:20,73265,15,task-yesg,,20189754,BLIND,5989210,Intro Experiment: General explanations,complete,,,computer,Desktop or Laptop,Mac OS 10.8.5,Chrome 49.0.2623.112,1920x1080,1920x902,Part 1 completed,Pics_Only_Dutch,5,Part 1 completed,,Accuracy_level_1,,"<div style=""font-size:60px;"">  </div>",,,,html-keyboard-response,1,28585,0.0-1.0-0.0,,,,,,,
3,1646747599891,08/03/2022 13:53:19,1646747601579,1,08/03/2022 14:53:21,73265,15,task-yesg,,20189754,BLIND,5989210,Intro Experiment: General explanations,complete,,,computer,Desktop or Laptop,Mac OS 10.8.5,Chrome 49.0.2623.112,1920x1080,1920x902,Part 1 completed,Pics_Only_Dutch,5,Part 1 completed,,Accuracy_level_1,,/task/320041/5/asset/comb.jpg,,,j,image-keyboard-response,2,30087,0.0-1.0-1.0,,,test,,0,,0.0268
4,1646747599981,08/03/2022 13:53:19,1646747601682,1,08/03/2022 14:53:21,73265,15,task-yesg,,20189754,BLIND,5989210,Intro Experiment: General explanations,complete,,,computer,Desktop or Laptop,Mac OS 10.8.5,Chrome 49.0.2623.112,1920x1080,1920x902,Part 1 completed,Pics_Only_Dutch,5,Part 1 completed,,Accuracy_level_1,,"<div style=""font-size:60px;"">  </div>",,,,html-keyboard-response,3,30190,0.0-1.0-0.1,,,,,,,
5,1646747601531,08/03/2022 13:53:21,1646747603183,1,08/03/2022 14:53:23,73265,15,task-yesg,,20189754,BLIND,5989210,Intro Experiment: General explanations,complete,,,computer,Desktop or Laptop,Mac OS 10.8.5,Chrome 49.0.2623.112,1920x1080,1920x902,Part 1 completed,Pics_Only_Dutch,5,Part 1 completed,,Accuracy_level_1,,/task/320041/5/asset/house.jpg,,,f,image-keyboard-response,4,31692,0.0-1.0-1.1,,,test,,0,,0.053533333333333336
6,1646747601607,08/03/2022 13:53:21,1646747603286,1,08/03/2022 14:53:23,73265,15,task-yesg,,20189754,BLIND,5989210,Intro Experiment: General explanations,complete,,,computer,Desktop or Laptop,Mac OS 10.8.5,Chrome 49.0.2623.112,1920x1080,1920x902,Part 1 completed,Pics_Only_Dutch,5,Part 1 completed,,Accuracy_level_1,,"<div style=""font-size:60px;"">  </div>",,,,html-keyboard-response,5,31795,0.0-1.1-0.2,,,,,,,
7,1646747603056,08/03/2022 13:53:23,1646747604788,1,08/03/2022 14:53:24,73265,15,task-yesg,,20189754,BLIND,5989210,Intro Experiment: General explanations,complete,,,computer,Desktop or Laptop,Mac OS 10.8.5,Chrome 49.0.2623.112,1920x1080,1920x902,Part 1 completed,Pics_Only_Dutch,5,Part 1 completed,,Accuracy_level_1,,/task/320041/5/asset/elephant.jpg,,,f,image-keyboard-response,6,33296,0.0-1.1-1.2,,,test,,,,0.08028333333333333
8,1646747603263,08/03/2022 13:53:23,1646747604990,1,08/03/2022 14:53:24,73265,15,task-yesg,,20189754,BLIND,5989210,Intro Experiment: General explanations,complete,,,computer,Desktop or Laptop,Mac OS 10.8.5,Chrome 49.0.2623.112,1920x1080,1920x902,Part 1 completed,Pics_Only_Dutch,5,Part 1 completed,,Accuracy_level_1,,"<span style=""color:red;font-size:50px;font-weight: bold;"">FOUT!</span>",,,,html-keyboard-response,7,33499,0.0-1.1-2.2-0.2,,,,,,,
9,1646747603368,08/03/2022 13:53:23,1646747605091,1,08/03/2022 14:53:25,73265,15,task-yesg,,20189754,BLIND,5989210,Intro Experiment: General explanations,complete,,,computer,Desktop or Laptop,Mac OS 10.8.5,Chrome 49.0.2623.112,1920x1080,1920x902,Part 1 completed,Pics_Only_Dutch,5,Part 1 completed,,Accuracy_level_1,,"<div style=""font-size:60px;"">  </div>",,,,html-keyboard-response,8,33600,0.0-1.1-0.3,,,,,,,
10,1646747604899,08/03/2022 13:53:24,1646747606594,1,08/03/2022 14:53:26,73265,15,task-yesg,,20189754,BLIND,5989210,Intro Experiment: General explanations,complete,,,computer,Desktop or Laptop,Mac OS 10.8.5,Chrome 49.0.2623.112,1920x1080,1920x902,Part 1 completed,Pics_Only_Dutch,5,Part 1 completed,,Accuracy_level_1,,/task/320041/5/asset/elephant.jpg,,,f,image-keyboard-response,9,35102,0.0-1.1-1.3,,,test,,0,,0.11038333333333333
