"Local.Date","Participant.Private.ID","Task.Name","Trial.Number","Correct","timelimit","ID","RT","Condition","Test","Day"
"19/03/2022 14:40:05",6094733,"PVT-1",1,0,7000,"1",407,"LCL",1,1
"19/03/2022 14:40:08",6094733,"PVT-1",2,0,1000,"1",677,"LCL",1,1
"19/03/2022 14:40:19",6094733,"PVT-1",3,0,9000,"1",419,"LCL",1,1
"19/03/2022 14:40:20",6094733,"PVT-1",4,1,2000,"1",78,"LCL",1,1
"19/03/2022 14:40:34",6094733,"PVT-1",5,0,10000,"1",403,"LCL",1,1
"19/03/2022 14:40:40",6094733,"PVT-1",6,0,4000,"1",412,"LCL",1,1
"19/03/2022 14:40:51",6094733,"PVT-1",7,0,10000,"1",379,"LCL",1,1
"19/03/2022 14:40:55",6094733,"PVT-1",8,0,2000,"1",429,"LCL",1,1
"19/03/2022 14:41:02",6094733,"PVT-1",9,0,5000,"1",414,"LCL",1,1
"19/03/2022 14:41:11",6094733,"PVT-1",10,0,8000,"1",388,"LCL",1,1
"19/03/2022 14:41:16",6094733,"PVT-1",11,0,3000,"1",435,"LCL",1,1
"19/03/2022 14:41:24",6094733,"PVT-1",12,0,6000,"1",390,"LCL",1,1
"19/03/2022 14:41:33",6094733,"PVT-1",13,0,8000,"1",378,"LCL",1,1
"19/03/2022 14:41:39",6094733,"PVT-1",14,0,4000,"1",443,"LCL",1,1
"19/03/2022 14:41:44",6094733,"PVT-1",15,0,3000,"1",410,"LCL",1,1
"19/03/2022 14:41:46",6094733,"PVT-1",16,0,1000,"1",353,"LCL",1,1
"19/03/2022 14:41:48",6094733,"PVT-1",17,1,3000,"1",255,"LCL",1,1
"19/03/2022 14:41:56",6094733,"PVT-1",18,0,6000,"1",360,"LCL",1,1
"19/03/2022 14:42:00",6094733,"PVT-1",19,0,2000,"1",388,"LCL",1,1
"19/03/2022 14:42:11",6094733,"PVT-1",20,0,9000,"1",890,"LCL",1,1
"19/03/2022 14:42:16",6094733,"PVT-1",21,0,4000,"1",472,"LCL",1,1
"19/03/2022 14:42:24",6094733,"PVT-1",22,0,6000,"1",335,"LCL",1,1
"19/03/2022 14:42:31",6094733,"PVT-1",23,0,5000,"1",415,"LCL",1,1
"19/03/2022 14:42:38",6094733,"PVT-1",24,1,8000,"1",5907,"LCL",1,1
"19/03/2022 14:42:50",6094733,"PVT-1",25,0,10000,"1",459,"LCL",1,1
"19/03/2022 14:42:58",6094733,"PVT-1",26,0,7000,"1",403,"LCL",1,1
"19/03/2022 14:43:01",6094733,"PVT-1",27,0,1000,"1",471,"LCL",1,1
"19/03/2022 14:43:12",6094733,"PVT-1",28,0,9000,"1",505,"LCL",1,1
"19/03/2022 14:43:15",6094733,"PVT-1",29,0,1000,"1",371,"LCL",1,1
"19/03/2022 14:43:26",6094733,"PVT-1",30,0,10000,"1",439,"LCL",1,1
"19/03/2022 14:43:35",6094733,"PVT-1",31,0,7000,"1",410,"LCL",1,1
"19/03/2022 14:43:42",6094733,"PVT-1",32,0,5000,"1",447,"LCL",1,1
"19/03/2022 14:43:48",6094733,"PVT-1",33,0,5000,"1",357,"LCL",1,1
"19/03/2022 14:43:52",6094733,"PVT-1",34,0,2000,"1",458,"LCL",1,1
"19/03/2022 14:43:58",6094733,"PVT-1",35,0,4000,"1",399,"LCL",1,1
"19/03/2022 14:44:00",6094733,"PVT-1",36,1,9000,"1",1035,"LCL",1,1
"19/03/2022 14:44:09",6094733,"PVT-1",37,0,7000,"1",369,"LCL",1,1
"19/03/2022 14:44:18",6094733,"PVT-1",38,0,8000,"1",415,"LCL",1,1
"19/03/2022 14:44:23",6094733,"PVT-1",39,0,3000,"1",429,"LCL",1,1
"19/03/2022 14:44:31",6094733,"PVT-1",40,0,6000,"1",330,"LCL",1,1
"15/03/2022 17:23:02",6054962,"PVT-1",1,0,3000,"2",356,"LCL",1,1
"15/03/2022 17:23:08",6054962,"PVT-1",2,0,4000,"2",376,"LCL",1,1
"15/03/2022 17:23:13",6054962,"PVT-1",3,1,7000,"2",3478,"LCL",1,1
"15/03/2022 17:23:24",6054962,"PVT-1",4,0,10000,"2",393,"LCL",1,1
"15/03/2022 17:23:30",6054962,"PVT-1",5,0,4000,"2",562,"LCL",1,1
"15/03/2022 17:23:40",6054962,"PVT-1",6,0,8000,"2",537,"LCL",1,1
"15/03/2022 17:23:52",6054962,"PVT-1",7,0,10000,"2",428,"LCL",1,1
"15/03/2022 17:24:01",6054962,"PVT-1",8,0,7000,"2",526,"LCL",1,1
"15/03/2022 17:24:11",6054962,"PVT-1",9,0,9000,"2",365,"LCL",1,1
"15/03/2022 17:24:21",6054962,"PVT-1",10,0,8000,"2",399,"LCL",1,1
"15/03/2022 17:24:26",6054962,"PVT-1",11,0,3000,"2",434,"LCL",1,1
"15/03/2022 17:24:28",6054962,"PVT-1",12,0,1000,"2",479,"LCL",1,1
"15/03/2022 17:24:31",6054962,"PVT-1",13,0,1000,"2",475,"LCL",1,1
"15/03/2022 17:24:43",6054962,"PVT-1",14,0,10000,"2",391,"LCL",1,1
"15/03/2022 17:24:51",6054962,"PVT-1",15,0,7000,"2",581,"LCL",1,1
"15/03/2022 17:24:55",6054962,"PVT-1",16,0,2000,"2",452,"LCL",1,1
"15/03/2022 17:25:06",6054962,"PVT-1",17,0,9000,"2",742,"LCL",1,1
"15/03/2022 17:25:09",6054962,"PVT-1",18,0,1000,"2",407,"LCL",1,1
"15/03/2022 17:25:15",6054962,"PVT-1",19,0,4000,"2",529,"LCL",1,1
"15/03/2022 17:25:19",6054962,"PVT-1",20,0,3000,"2",456,"LCL",1,1
"15/03/2022 17:25:26",6054962,"PVT-1",21,0,5000,"2",590,"LCL",1,1
"15/03/2022 17:25:30",6054962,"PVT-1",22,0,2000,"2",461,"LCL",1,1
"15/03/2022 17:25:37",6054962,"PVT-1",23,0,5000,"2",452,"LCL",1,1
"15/03/2022 17:25:43",6054962,"PVT-1",24,0,5000,"2",466,"LCL",1,1
"15/03/2022 17:25:51",6054962,"PVT-1",25,0,6000,"2",444,"LCL",1,1
"15/03/2022 17:26:01",6054962,"PVT-1",26,0,8000,"2",663,"LCL",1,1
"15/03/2022 17:26:11",6054962,"PVT-1",27,0,8000,"2",670,"LCL",1,1
"15/03/2022 17:26:22",6054962,"PVT-1",28,0,9000,"2",563,"LCL",1,1
"15/03/2022 17:26:29",6054962,"PVT-1",29,0,6000,"2",551,"LCL",1,1
"15/03/2022 17:26:32",6054962,"PVT-1",30,0,1000,"2",480,"LCL",1,1
"15/03/2022 17:26:40",6054962,"PVT-1",31,0,6000,"2",505,"LCL",1,1
"15/03/2022 17:26:44",6054962,"PVT-1",32,0,2000,"2",523,"LCL",1,1
"15/03/2022 17:26:52",6054962,"PVT-1",33,0,7000,"2",417,"LCL",1,1
"15/03/2022 17:26:57",6054962,"PVT-1",34,0,3000,"2",417,"LCL",1,1
"15/03/2022 17:27:03",6054962,"PVT-1",35,0,4000,"2",416,"LCL",1,1
"15/03/2022 17:27:06",6054962,"PVT-1",36,0,2000,"2",428,"LCL",1,1
"15/03/2022 17:27:13",6054962,"PVT-1",37,0,5000,"2",466,"LCL",1,1
"15/03/2022 17:27:21",6054962,"PVT-1",38,0,6000,"2",435,"LCL",1,1
"15/03/2022 17:27:32",6054962,"PVT-1",39,0,9000,"2",599,"LCL",1,1
"15/03/2022 17:27:43",6054962,"PVT-1",40,0,10000,"2",613,"LCL",1,1
"15/03/2022 12:55:35",6051971,"PVT-1",1,0,2000,"3",376.3,"LCL",1,1
"15/03/2022 12:55:38",6051971,"PVT-1",2,1,6000,"3",1715.4,"LCL",1,1
"15/03/2022 12:55:51",6051971,"PVT-1",3,0,9000,"3",322.8,"LCL",1,1
"15/03/2022 12:56:02",6051971,"PVT-1",4,0,9000,"3",315.8,"LCL",1,1
"15/03/2022 12:56:10",6051971,"PVT-1",5,0,7000,"3",297.1,"LCL",1,1
"15/03/2022 12:56:13",6051971,"PVT-1",6,0,1000,"3",416.3,"LCL",1,1
"15/03/2022 12:56:22",6051971,"PVT-1",7,0,8000,"3",348.7,"LCL",1,1
"15/03/2022 12:56:25",6051971,"PVT-1",8,0,1000,"3",393.4,"LCL",1,1
"15/03/2022 12:56:32",6051971,"PVT-1",9,0,5000,"3",303.1,"LCL",1,1
"15/03/2022 12:56:38",6051971,"PVT-1",10,0,5000,"3",260.8,"LCL",1,1
"15/03/2022 12:56:50",6051971,"PVT-1",11,0,10000,"3",368.1,"LCL",1,1
"15/03/2022 12:56:56",6051971,"PVT-1",12,0,5000,"3",468.8,"LCL",1,1
"15/03/2022 12:57:02",6051971,"PVT-1",13,0,4000,"3",293.4,"LCL",1,1
"15/03/2022 12:57:12",6051971,"PVT-1",14,0,8000,"3",402.2,"LCL",1,1
"15/03/2022 12:57:17",6051971,"PVT-1",15,0,4000,"3",317,"LCL",1,1
"15/03/2022 12:57:27",6051971,"PVT-1",16,0,8000,"3",312.7,"LCL",1,1
"15/03/2022 12:57:35",6051971,"PVT-1",17,1,10000,"3",6763.3,"LCL",1,1
"15/03/2022 12:57:40",6051971,"PVT-1",18,0,2000,"3",534.3,"LCL",1,1
"15/03/2022 12:57:52",6051971,"PVT-1",19,0,10000,"3",391,"LCL",1,1
"15/03/2022 12:58:00",6051971,"PVT-1",20,0,7000,"3",449.8,"LCL",1,1
"15/03/2022 12:58:06",6051971,"PVT-1",21,1,8000,"3",4187.2,"LCL",1,1
"15/03/2022 12:58:14",6051971,"PVT-1",22,0,6000,"3",363.9,"LCL",1,1
"15/03/2022 12:58:17",6051971,"PVT-1",23,0,1000,"3",353.3,"LCL",1,1
"15/03/2022 12:58:25",6051971,"PVT-1",24,0,6000,"3",356,"LCL",1,1
"15/03/2022 12:58:28",6051971,"PVT-1",25,0,2000,"3",382.9,"LCL",1,1
"15/03/2022 12:58:34",6051971,"PVT-1",26,0,4000,"3",338.1,"LCL",1,1
"15/03/2022 12:58:39",6051971,"PVT-1",27,0,4000,"3",284.3,"LCL",1,1
"15/03/2022 12:58:50",6051971,"PVT-1",28,0,9000,"3",370.6,"LCL",1,1
"15/03/2022 12:58:55",6051971,"PVT-1",29,0,3000,"3",292.2,"LCL",1,1
"15/03/2022 12:58:59",6051971,"PVT-1",30,0,3000,"3",360.8,"LCL",1,1
"15/03/2022 12:59:02",6051971,"PVT-1",31,0,1000,"3",424,"LCL",1,1
"15/03/2022 12:59:10",6051971,"PVT-1",32,0,7000,"3",297.5,"LCL",1,1
"15/03/2022 12:59:21",6051971,"PVT-1",33,0,9000,"3",291.5,"LCL",1,1
"15/03/2022 12:59:25",6051971,"PVT-1",34,0,2000,"3",396.5,"LCL",1,1
"15/03/2022 12:59:32",6051971,"PVT-1",35,0,6000,"3",296.3,"LCL",1,1
"15/03/2022 12:59:37",6051971,"PVT-1",36,0,3000,"3",306.9,"LCL",1,1
"15/03/2022 12:59:48",6051971,"PVT-1",37,0,10000,"3",321.8,"LCL",1,1
"15/03/2022 12:59:53",6051971,"PVT-1",38,0,3000,"3",366.2,"LCL",1,1
"15/03/2022 12:59:59",6051971,"PVT-1",39,0,5000,"3",261.5,"LCL",1,1
"15/03/2022 13:00:08",6051971,"PVT-1",40,0,7000,"3",304.3,"LCL",1,1
"13/03/2022 19:24:21",6034899,"PVT-1",1,0,6000,"4",374.6,"LCL",1,1
"13/03/2022 19:24:24",6034899,"PVT-1",2,0,1000,"4",583.2,"LCL",1,1
"13/03/2022 19:24:28",6034899,"PVT-1",3,0,2000,"4",304.7,"LCL",1,1
"13/03/2022 19:24:34",6034899,"PVT-1",4,0,5000,"4",296.9,"LCL",1,1
"13/03/2022 19:24:43",6034899,"PVT-1",5,0,7000,"4",333.9,"LCL",1,1
"13/03/2022 19:24:48",6034899,"PVT-1",6,0,4000,"4",275.1,"LCL",1,1
"13/03/2022 19:24:53",6034899,"PVT-1",7,0,3000,"4",303.7,"LCL",1,1
"13/03/2022 19:24:57",6034899,"PVT-1",8,0,2000,"4",580.2,"LCL",1,1
"13/03/2022 19:25:01",6034899,"PVT-1",9,0,3000,"4",311.9,"LCL",1,1
"13/03/2022 19:25:09",6034899,"PVT-1",10,0,6000,"4",300.3,"LCL",1,1
"13/03/2022 19:25:13",6034899,"PVT-1",11,1,9000,"4",2499.8,"LCL",1,1
"13/03/2022 19:25:21",6034899,"PVT-1",12,0,5000,"4",287.9,"LCL",1,1
"13/03/2022 19:25:25",6034899,"PVT-1",13,1,10000,"4",2867.7,"LCL",1,1
"13/03/2022 19:25:31",6034899,"PVT-1",14,0,4000,"4",498,"LCL",1,1
"13/03/2022 19:25:34",6034899,"PVT-1",15,0,1000,"4",425.7,"LCL",1,1
"13/03/2022 19:25:38",6034899,"PVT-1",16,1,8000,"4",3296.3,"LCL",1,1
"13/03/2022 19:25:43",6034899,"PVT-1",17,0,2000,"4",313.9,"LCL",1,1
"13/03/2022 19:25:45",6034899,"PVT-1",18,0,1000,"4",489.3,"LCL",1,1
"13/03/2022 19:25:50",6034899,"PVT-1",19,1,5000,"4",2834.1,"LCL",1,1
"13/03/2022 19:25:56",6034899,"PVT-1",20,0,3000,"4",352.9,"LCL",1,1
"13/03/2022 19:25:57",6034899,"PVT-1",21,1,5000,"4",380.5,"LCL",1,1
"13/03/2022 19:26:07",6034899,"PVT-1",22,0,8000,"4",333.8,"LCL",1,1
"13/03/2022 19:26:09",6034899,"PVT-1",23,1,7000,"4",1221.8,"LCL",1,1
"13/03/2022 19:26:22",6034899,"PVT-1",24,0,10000,"4",385.4,"LCL",1,1
"13/03/2022 19:26:26",6034899,"PVT-1",25,1,4000,"4",2386.3,"LCL",1,1
"13/03/2022 19:26:35",6034899,"PVT-1",26,0,7000,"4",269.5,"LCL",1,1
"13/03/2022 19:26:42",6034899,"PVT-1",27,1,9000,"4",5912.9,"LCL",1,1
"13/03/2022 19:26:46",6034899,"PVT-1",28,0,1000,"4",360.3,"LCL",1,1
"13/03/2022 19:26:56",6034899,"PVT-1",29,0,8000,"4",288.4,"LCL",1,1
"13/03/2022 19:27:03",6034899,"PVT-1",30,0,6000,"4",437.7,"LCL",1,1
"13/03/2022 19:27:08",6034899,"PVT-1",31,0,3000,"4",279.8,"LCL",1,1
"13/03/2022 19:27:11",6034899,"PVT-1",32,1,8000,"4",2214,"LCL",1,1
"13/03/2022 19:27:18",6034899,"PVT-1",33,0,4000,"4",36.1,"LCL",1,1
"13/03/2022 19:27:25",6034899,"PVT-1",34,1,6000,"4",5194.3,"LCL",1,1
"13/03/2022 19:27:36",6034899,"PVT-1",35,0,9000,"4",321.2,"LCL",1,1
"13/03/2022 19:27:47",6034899,"PVT-1",36,0,9000,"4",375,"LCL",1,1
"13/03/2022 19:27:50",6034899,"PVT-1",37,0,2000,"4",402.1,"LCL",1,1
"13/03/2022 19:27:59",6034899,"PVT-1",38,0,7000,"4",345.3,"LCL",1,1
"13/03/2022 19:28:11",6034899,"PVT-1",39,0,10000,"4",417,"LCL",1,1
"13/03/2022 19:28:22",6034899,"PVT-1",40,0,10000,"4",412.2,"LCL",1,1
"13/03/2022 11:59:16",6032158,"PVT-1",1,1,8000,"5",5906.8,"LCL",1,1
"13/03/2022 11:59:27",6032158,"PVT-1",2,0,5000,"5",369.2,"LCL",1,1
"13/03/2022 11:59:33",6032158,"PVT-1",3,0,4000,"5",410.5,"LCL",1,1
"13/03/2022 11:59:44",6032158,"PVT-1",4,0,9000,"5",363.1,"LCL",1,1
"13/03/2022 11:59:46",6032158,"PVT-1",5,0,1000,"5",453.2,"LCL",1,1
"13/03/2022 11:59:55",6032158,"PVT-1",6,0,7000,"5",325.5,"LCL",1,1
"13/03/2022 12:00:05",6032158,"PVT-1",7,0,9000,"5",330.8,"LCL",1,1
"13/03/2022 12:00:09",6032158,"PVT-1",8,0,2000,"5",350.7,"LCL",1,1
"13/03/2022 12:00:17",6032158,"PVT-1",9,0,6000,"5",349.1,"LCL",1,1
"13/03/2022 12:00:28",6032158,"PVT-1",10,0,10000,"5",335.5,"LCL",1,1
"13/03/2022 12:00:33",6032158,"PVT-1",11,0,3000,"5",364.7,"LCL",1,1
"13/03/2022 12:00:37",6032158,"PVT-1",12,0,3000,"5",319,"LCL",1,1
"13/03/2022 12:00:45",6032158,"PVT-1",13,0,6000,"5",347.7,"LCL",1,1
"13/03/2022 12:00:54",6032158,"PVT-1",14,0,7000,"5",330.1,"LCL",1,1
"13/03/2022 12:00:57",6032158,"PVT-1",15,0,2000,"5",468.7,"LCL",1,1
"13/03/2022 12:01:04",6032158,"PVT-1",16,0,5000,"5",390.4,"LCL",1,1
"13/03/2022 12:01:15",6032158,"PVT-1",17,0,9000,"5",332.5,"LCL",1,1
"13/03/2022 12:01:18",6032158,"PVT-1",18,0,2000,"5",353.9,"LCL",1,1
"13/03/2022 12:01:30",6032158,"PVT-1",19,0,10000,"5",407.9,"LCL",1,1
"13/03/2022 12:01:33",6032158,"PVT-1",20,0,1000,"5",339.5,"LCL",1,1
"13/03/2022 12:01:39",6032158,"PVT-1",21,0,5000,"5",365.5,"LCL",1,1
"13/03/2022 12:01:45",6032158,"PVT-1",22,0,4000,"5",322.1,"LCL",1,1
"13/03/2022 12:01:56",6032158,"PVT-1",23,0,10000,"5",379.6,"LCL",1,1
"13/03/2022 12:02:02",6032158,"PVT-1",24,0,4000,"5",330.3,"LCL",1,1
"13/03/2022 12:02:14",6032158,"PVT-1",25,0,10000,"5",324.4,"LCL",1,1
"13/03/2022 12:02:21",6032158,"PVT-1",26,0,6000,"5",483.1,"LCL",1,1
"13/03/2022 12:02:27",6032158,"PVT-1",27,0,4000,"5",338.8,"LCL",1,1
"13/03/2022 12:02:32",6032158,"PVT-1",28,0,3000,"5",347.3,"LCL",1,1
"13/03/2022 12:02:34",6032158,"PVT-1",29,0,1000,"5",353.9,"LCL",1,1
"13/03/2022 12:02:42",6032158,"PVT-1",30,0,6000,"5",369.8,"LCL",1,1
"13/03/2022 12:02:51",6032158,"PVT-1",31,0,8000,"5",302.3,"LCL",1,1
"13/03/2022 12:02:55",6032158,"PVT-1",32,0,2000,"5",307,"LCL",1,1
"13/03/2022 12:03:06",6032158,"PVT-1",33,0,9000,"5",357.9,"LCL",1,1
"13/03/2022 12:03:14",6032158,"PVT-1",34,0,7000,"5",347.4,"LCL",1,1
"13/03/2022 12:03:19",6032158,"PVT-1",35,0,3000,"5",370.3,"LCL",1,1
"13/03/2022 12:03:28",6032158,"PVT-1",36,0,8000,"5",351.9,"LCL",1,1
"13/03/2022 12:03:35",6032158,"PVT-1",37,0,5000,"5",336.3,"LCL",1,1
"13/03/2022 12:03:45",6032158,"PVT-1",38,0,8000,"5",322.6,"LCL",1,1
"13/03/2022 12:03:53",6032158,"PVT-1",39,0,7000,"5",344.5,"LCL",1,1
"13/03/2022 12:03:56",6032158,"PVT-1",40,0,1000,"5",421.5,"LCL",1,1
"11/03/2022 16:21:18",6022522,"PVT-1",1,0,9000,"6",311,"LCL",1,1
"11/03/2022 16:21:25",6022522,"PVT-1",2,0,6000,"6",434.4,"LCL",1,1
"11/03/2022 16:21:37",6022522,"PVT-1",3,0,10000,"6",345.4,"LCL",1,1
"11/03/2022 16:21:46",6022522,"PVT-1",4,0,8000,"6",338.8,"LCL",1,1
"11/03/2022 16:21:53",6022522,"PVT-1",5,0,5000,"6",436.8,"LCL",1,1
"11/03/2022 16:21:55",6022522,"PVT-1",6,1,1000,"6",323.8,"LCL",1,1
"11/03/2022 16:22:01",6022522,"PVT-1",7,0,3000,"6",362.4,"LCL",1,1
"11/03/2022 16:22:07",6022522,"PVT-1",8,0,5000,"6",302.8,"LCL",1,1
"11/03/2022 16:22:13",6022522,"PVT-1",9,0,4000,"6",289.8,"LCL",1,1
"11/03/2022 16:22:15",6022522,"PVT-1",10,0,1000,"6",364.8,"LCL",1,1
"11/03/2022 16:22:24",6022522,"PVT-1",11,0,7000,"6",292.7,"LCL",1,1
"11/03/2022 16:22:28",6022522,"PVT-1",12,0,3000,"6",320,"LCL",1,1
"11/03/2022 16:22:35",6022522,"PVT-1",13,0,5000,"6",362.5,"LCL",1,1
"11/03/2022 16:22:41",6022522,"PVT-1",14,0,4000,"6",321.5,"LCL",1,1
"11/03/2022 16:22:51",6022522,"PVT-1",15,0,9000,"6",262,"LCL",1,1
"11/03/2022 16:22:54",6022522,"PVT-1",16,0,2000,"6",284.7,"LCL",1,1
"11/03/2022 16:22:57",6022522,"PVT-1",17,0,1000,"6",293.8,"LCL",1,1
"11/03/2022 16:23:01",6022522,"PVT-1",18,0,3000,"6",38.2,"LCL",1,1
"11/03/2022 16:23:13",6022522,"PVT-1",19,0,10000,"6",478.5,"LCL",1,1
"11/03/2022 16:23:23",6022522,"PVT-1",20,0,8000,"6",309.8,"LCL",1,1
"11/03/2022 16:23:28",6022522,"PVT-1",21,0,4000,"6",314.5,"LCL",1,1
"11/03/2022 16:23:31",6022522,"PVT-1",22,0,1000,"6",407.7,"LCL",1,1
"11/03/2022 16:23:38",6022522,"PVT-1",23,0,6000,"6",451.2,"LCL",1,1
"11/03/2022 16:23:44",6022522,"PVT-1",24,1,10000,"6",3978,"LCL",1,1
"11/03/2022 16:23:55",6022522,"PVT-1",25,0,9000,"6",306.5,"LCL",1,1
"11/03/2022 16:24:00",6022522,"PVT-1",26,0,3000,"6",373.1,"LCL",1,1
"11/03/2022 16:24:03",6022522,"PVT-1",27,0,2000,"6",311.5,"LCL",1,1
"11/03/2022 16:24:11",6022522,"PVT-1",28,0,6000,"6",307.5,"LCL",1,1
"11/03/2022 16:24:20",6022522,"PVT-1",29,0,7000,"6",416.6,"LCL",1,1
"11/03/2022 16:24:28",6022522,"PVT-1",30,0,7000,"6",356.9,"LCL",1,1
"11/03/2022 16:24:32",6022522,"PVT-1",31,0,2000,"6",344.5,"LCL",1,1
"11/03/2022 16:24:40",6022522,"PVT-1",32,0,6000,"6",322.9,"LCL",1,1
"11/03/2022 16:24:48",6022522,"PVT-1",33,0,7000,"6",281.7,"LCL",1,1
"11/03/2022 16:24:54",6022522,"PVT-1",34,0,4000,"6",316.8,"LCL",1,1
"11/03/2022 16:25:03",6022522,"PVT-1",35,0,8000,"6",522.1,"LCL",1,1
"11/03/2022 16:25:10",6022522,"PVT-1",36,0,5000,"6",322.7,"LCL",1,1
"11/03/2022 16:25:19",6022522,"PVT-1",37,0,8000,"6",339.3,"LCL",1,1
"11/03/2022 16:25:30",6022522,"PVT-1",38,0,9000,"6",308.2,"LCL",1,1
"11/03/2022 16:25:32",6022522,"PVT-1",39,1,10000,"6",401,"LCL",1,1
"11/03/2022 16:25:36",6022522,"PVT-1",40,0,2000,"6",335.3,"LCL",1,1
"11/03/2022 14:56:35",6021527,"PVT-1",1,0,5000,"7",585.6,"LCL",1,1
"11/03/2022 14:56:39",6021527,"PVT-1",2,0,2000,"7",304.3,"LCL",1,1
"11/03/2022 14:56:49",6021527,"PVT-1",3,0,9000,"7",330.8,"LCL",1,1
"11/03/2022 14:56:52",6021527,"PVT-1",4,0,1000,"7",314.4,"LCL",1,1
"11/03/2022 14:57:04",6021527,"PVT-1",5,0,10000,"7",320,"LCL",1,1
"11/03/2022 14:57:11",6021527,"PVT-1",6,0,6000,"7",337.5,"LCL",1,1
"11/03/2022 14:57:17",6021527,"PVT-1",7,0,4000,"7",289.8,"LCL",1,1
"11/03/2022 14:57:21",6021527,"PVT-1",8,0,3000,"7",316.8,"LCL",1,1
"11/03/2022 14:57:25",6021527,"PVT-1",9,0,2000,"7",283.2,"LCL",1,1
"11/03/2022 14:57:35",6021527,"PVT-1",10,0,9000,"7",278.9,"LCL",1,1
"11/03/2022 14:57:43",6021527,"PVT-1",11,0,6000,"7",314.3,"LCL",1,1
"11/03/2022 14:57:55",6021527,"PVT-1",12,0,10000,"7",464.5,"LCL",1,1
"11/03/2022 14:58:03",6021527,"PVT-1",13,0,7000,"7",332.3,"LCL",1,1
"11/03/2022 14:58:09",6021527,"PVT-1",14,0,4000,"7",281.2,"LCL",1,1
"11/03/2022 14:58:14",6021527,"PVT-1",15,0,4000,"7",311.2,"LCL",1,1
"11/03/2022 14:58:22",6021527,"PVT-1",16,0,6000,"7",279.5,"LCL",1,1
"11/03/2022 14:58:26",6021527,"PVT-1",17,0,3000,"7",311.2,"LCL",1,1
"11/03/2022 14:58:35",6021527,"PVT-1",18,0,7000,"7",302.1,"LCL",1,1
"11/03/2022 14:58:39",6021527,"PVT-1",19,0,2000,"7",326.8,"LCL",1,1
"11/03/2022 14:58:48",6021527,"PVT-1",20,0,8000,"7",294.4,"LCL",1,1
"11/03/2022 14:58:53",6021527,"PVT-1",21,0,3000,"7",361.2,"LCL",1,1
"11/03/2022 14:59:01",6021527,"PVT-1",22,0,7000,"7",296.6,"LCL",1,1
"11/03/2022 14:59:11",6021527,"PVT-1",23,0,8000,"7",340,"LCL",1,1
"11/03/2022 14:59:20",6021527,"PVT-1",24,0,8000,"7",343.8,"LCL",1,1
"11/03/2022 14:59:26",6021527,"PVT-1",25,0,4000,"7",471.4,"LCL",1,1
"11/03/2022 14:59:29",6021527,"PVT-1",26,0,1000,"7",438.3,"LCL",1,1
"11/03/2022 14:59:37",6021527,"PVT-1",27,0,7000,"7",318.7,"LCL",1,1
"11/03/2022 14:59:44",6021527,"PVT-1",28,0,5000,"7",287.6,"LCL",1,1
"11/03/2022 14:59:47",6021527,"PVT-1",29,0,1000,"7",327.3,"LCL",1,1
"11/03/2022 14:59:53",6021527,"PVT-1",30,0,5000,"7",282.4,"LCL",1,1
"11/03/2022 14:59:57",6021527,"PVT-1",31,0,2000,"7",291,"LCL",1,1
"11/03/2022 15:00:07",6021527,"PVT-1",32,0,9000,"7",263.9,"LCL",1,1
"11/03/2022 15:00:19",6021527,"PVT-1",33,0,10000,"7",276.7,"LCL",1,1
"11/03/2022 15:00:28",6021527,"PVT-1",34,0,8000,"7",342.7,"LCL",1,1
"11/03/2022 15:00:33",6021527,"PVT-1",35,0,3000,"7",319.2,"LCL",1,1
"11/03/2022 15:00:39",6021527,"PVT-1",36,0,5000,"7",297.5,"LCL",1,1
"11/03/2022 15:00:42",6021527,"PVT-1",37,0,1000,"7",374,"LCL",1,1
"11/03/2022 15:00:52",6021527,"PVT-1",38,0,9000,"7",296.5,"LCL",1,1
"11/03/2022 15:01:04",6021527,"PVT-1",39,0,10000,"7",284.2,"LCL",1,1
"11/03/2022 15:01:12",6021527,"PVT-1",40,0,6000,"7",328.3,"LCL",1,1
"09/03/2022 10:24:27",5998568,"PVT-1",1,0,4000,"8",288.3,"LCL",1,1
"09/03/2022 10:24:34",5998568,"PVT-1",2,0,5000,"8",244.8,"LCL",1,1
"09/03/2022 10:24:36",5998568,"PVT-1",3,1,7000,"8",1176.8,"LCL",1,1
"09/03/2022 10:24:44",5998568,"PVT-1",4,1,8000,"8",5683.3,"LCL",1,1
"09/03/2022 10:24:53",5998568,"PVT-1",5,0,7000,"8",347.9,"LCL",1,1
"09/03/2022 10:24:59",5998568,"PVT-1",6,0,4000,"8",483.6,"LCL",1,1
"09/03/2022 10:25:03",5998568,"PVT-1",7,0,2000,"8",609.5,"LCL",1,1
"09/03/2022 10:25:09",5998568,"PVT-1",8,0,5000,"8",294.4,"LCL",1,1
"09/03/2022 10:25:16",5998568,"PVT-1",9,0,5000,"8",268.8,"LCL",1,1
"09/03/2022 10:25:19",5998568,"PVT-1",10,0,2000,"8",386.1,"LCL",1,1
"09/03/2022 10:25:28",5998568,"PVT-1",11,0,7000,"8",275.1,"LCL",1,1
"09/03/2022 10:25:34",5998568,"PVT-1",12,0,4000,"8",385.8,"LCL",1,1
"09/03/2022 10:25:45",5998568,"PVT-1",13,0,10000,"8",297.7,"LCL",1,1
"09/03/2022 10:25:53",5998568,"PVT-1",14,0,6000,"8",301,"LCL",1,1
"09/03/2022 10:25:56",5998568,"PVT-1",15,0,2000,"8",432,"LCL",1,1
"09/03/2022 10:26:07",5998568,"PVT-1",16,0,9000,"8",298.6,"LCL",1,1
"09/03/2022 10:26:12",5998568,"PVT-1",17,0,3000,"8",398.8,"LCL",1,1
"09/03/2022 10:26:15",5998568,"PVT-1",18,0,2000,"8",531.9,"LCL",1,1
"09/03/2022 10:26:25",5998568,"PVT-1",19,0,8000,"8",298.4,"LCL",1,1
"09/03/2022 10:26:32",5998568,"PVT-1",20,0,6000,"8",326.8,"LCL",1,1
"09/03/2022 10:26:35",5998568,"PVT-1",21,0,1000,"8",695.5,"LCL",1,1
"09/03/2022 10:26:46",5998568,"PVT-1",22,0,9000,"8",274.1,"LCL",1,1
"09/03/2022 10:26:51",5998568,"PVT-1",23,0,3000,"8",414.1,"LCL",1,1
"09/03/2022 10:27:00",5998568,"PVT-1",24,0,8000,"8",311.4,"LCL",1,1
"09/03/2022 10:27:04",5998568,"PVT-1",25,1,7000,"8",2513.7,"LCL",1,1
"09/03/2022 10:27:10",5998568,"PVT-1",26,0,4000,"8",278,"LCL",1,1
"09/03/2022 10:27:13",5998568,"PVT-1",27,0,1000,"8",461.6,"LCL",1,1
"09/03/2022 10:27:23",5998568,"PVT-1",28,0,9000,"8",310.8,"LCL",1,1
"09/03/2022 10:27:31",5998568,"PVT-1",29,0,6000,"8",304.8,"LCL",1,1
"09/03/2022 10:27:38",5998568,"PVT-1",30,0,6000,"8",335.3,"LCL",1,1
"09/03/2022 10:27:50",5998568,"PVT-1",31,0,10000,"8",339.7,"LCL",1,1
"09/03/2022 10:28:01",5998568,"PVT-1",32,0,9000,"8",534.7,"LCL",1,1
"09/03/2022 10:28:12",5998568,"PVT-1",33,0,10000,"8",300.5,"LCL",1,1
"09/03/2022 10:28:17",5998568,"PVT-1",34,0,3000,"8",346.6,"LCL",1,1
"09/03/2022 10:28:23",5998568,"PVT-1",35,0,5000,"8",307.9,"LCL",1,1
"09/03/2022 10:28:26",5998568,"PVT-1",36,0,1000,"8",387,"LCL",1,1
"09/03/2022 10:28:28",5998568,"PVT-1",37,1,1000,"8",612.3,"LCL",1,1
"09/03/2022 10:28:38",5998568,"PVT-1",38,0,8000,"8",321.2,"LCL",1,1
"09/03/2022 10:28:40",5998568,"PVT-1",39,1,3000,"8",1233.8,"LCL",1,1
"09/03/2022 10:28:52",5998568,"PVT-1",40,0,10000,"8",326.4,"LCL",1,1
"08/03/2022 14:45:56",5989210,"PVT-1",1,0,6000,"9",402.19,"LCL",1,1
"08/03/2022 14:46:01",5989210,"PVT-1",2,0,4000,"9",334.51,"LCL",1,1
"08/03/2022 14:46:13",5989210,"PVT-1",3,0,10000,"9",329.3,"LCL",1,1
"08/03/2022 14:46:21",5989210,"PVT-1",4,0,7000,"9",360.59,"LCL",1,1
"08/03/2022 14:46:26",5989210,"PVT-1",5,0,3000,"9",596.76,"LCL",1,1
"08/03/2022 14:46:30",5989210,"PVT-1",6,0,2000,"9",453.3,"LCL",1,1
"08/03/2022 14:46:34",5989210,"PVT-1",7,0,3000,"9",358.11,"LCL",1,1
"08/03/2022 14:46:41",5989210,"PVT-1",8,0,5000,"9",356.74,"LCL",1,1
"08/03/2022 14:46:47",5989210,"PVT-1",9,0,4000,"9",301.91,"LCL",1,1
"08/03/2022 14:46:50",5989210,"PVT-1",10,0,2000,"9",336.52,"LCL",1,1
"08/03/2022 14:46:59",5989210,"PVT-1",11,0,7000,"9",332.38,"LCL",1,1
"08/03/2022 14:47:10",5989210,"PVT-1",12,0,10000,"9",304.99,"LCL",1,1
"08/03/2022 14:47:17",5989210,"PVT-1",13,0,5000,"9",339.31,"LCL",1,1
"08/03/2022 14:47:25",5989210,"PVT-1",14,0,6000,"9",379.37,"LCL",1,1
"08/03/2022 14:47:31",5989210,"PVT-1",15,0,5000,"9",354.51,"LCL",1,1
"08/03/2022 14:47:38",5989210,"PVT-1",16,0,5000,"9",331.77,"LCL",1,1
"08/03/2022 14:47:48",5989210,"PVT-1",17,0,9000,"9",336.82,"LCL",1,1
"08/03/2022 14:47:51",5989210,"PVT-1",18,0,1000,"9",648.74,"LCL",1,1
"08/03/2022 14:48:02",5989210,"PVT-1",19,0,9000,"9",376.24,"LCL",1,1
"08/03/2022 14:48:12",5989210,"PVT-1",20,0,8000,"9",364.5,"LCL",1,1
"08/03/2022 14:48:14",5989210,"PVT-1",21,0,1000,"9",378.67,"LCL",1,1
"08/03/2022 14:48:24",5989210,"PVT-1",22,0,8000,"9",358.36,"LCL",1,1
"08/03/2022 14:48:26",5989210,"PVT-1",23,0,1000,"9",436.3,"LCL",1,1
"08/03/2022 14:48:38",5989210,"PVT-1",24,0,10000,"9",356.52,"LCL",1,1
"08/03/2022 14:48:47",5989210,"PVT-1",25,0,7000,"9",435.73,"LCL",1,1
"08/03/2022 14:48:57",5989210,"PVT-1",26,0,9000,"9",491.41,"LCL",1,1
"08/03/2022 14:49:09",5989210,"PVT-1",27,0,10000,"9",313.39,"LCL",1,1
"08/03/2022 14:49:20",5989210,"PVT-1",28,0,9000,"9",313.36,"LCL",1,1
"08/03/2022 14:49:29",5989210,"PVT-1",29,0,8000,"9",334.91,"LCL",1,1
"08/03/2022 14:49:38",5989210,"PVT-1",30,0,7000,"9",359.64,"LCL",1,1
"08/03/2022 14:49:43",5989210,"PVT-1",31,1,6000,"9",4434.69,"LCL",1,1
"08/03/2022 14:49:54",5989210,"PVT-1",32,0,6000,"9",367.52,"LCL",1,1
"08/03/2022 14:49:58",5989210,"PVT-1",33,0,3000,"9",394.67,"LCL",1,1
"08/03/2022 14:50:01",5989210,"PVT-1",34,0,1000,"9",375.8,"LCL",1,1
"08/03/2022 14:50:05",5989210,"PVT-1",35,0,2000,"9",436.68,"LCL",1,1
"08/03/2022 14:50:10",5989210,"PVT-1",36,0,4000,"9",409.41,"LCL",1,1
"08/03/2022 14:50:16",5989210,"PVT-1",37,0,4000,"9",423.84,"LCL",1,1
"08/03/2022 14:50:20",5989210,"PVT-1",38,0,2000,"9",409.24,"LCL",1,1
"08/03/2022 14:50:24",5989210,"PVT-1",39,0,3000,"9",387.35,"LCL",1,1
"08/03/2022 14:50:34",5989210,"PVT-1",40,0,8000,"9",381.5,"LCL",1,1
"07/03/2022 18:19:09",5972488,"PVT-1",1,0,10000,"10",459,"LCL",1,1
"07/03/2022 18:19:17",5972488,"PVT-1",2,0,7000,"10",331,"LCL",1,1
"07/03/2022 18:19:26",5972488,"PVT-1",3,0,7000,"10",321,"LCL",1,1
"07/03/2022 18:19:35",5972488,"PVT-1",4,0,7000,"10",335,"LCL",1,1
"07/03/2022 18:19:41",5972488,"PVT-1",5,0,5000,"10",349,"LCL",1,1
"07/03/2022 18:19:49",5972488,"PVT-1",6,0,6000,"10",386,"LCL",1,1
"07/03/2022 18:19:58",5972488,"PVT-1",7,0,8000,"10",348,"LCL",1,1
"07/03/2022 18:20:06",5972488,"PVT-1",8,0,6000,"10",332,"LCL",1,1
"07/03/2022 18:20:13",5972488,"PVT-1",9,0,5000,"10",350,"LCL",1,1
"07/03/2022 18:20:20",5972488,"PVT-1",10,0,6000,"10",349,"LCL",1,1
"07/03/2022 18:20:25",5972488,"PVT-1",11,0,3000,"10",475,"LCL",1,1
"07/03/2022 18:20:35",5972488,"PVT-1",12,0,8000,"10",353,"LCL",1,1
"07/03/2022 18:20:46",5972488,"PVT-1",13,0,10000,"10",348,"LCL",1,1
"07/03/2022 18:20:53",5972488,"PVT-1",14,0,5000,"10",363,"LCL",1,1
"07/03/2022 18:20:58",5972488,"PVT-1",15,0,4000,"10",409,"LCL",1,1
"07/03/2022 18:21:08",5972488,"PVT-1",16,0,8000,"10",330,"LCL",1,1
"07/03/2022 18:21:12",5972488,"PVT-1",17,0,2000,"10",513,"LCL",1,1
"07/03/2022 18:21:14",5972488,"PVT-1",18,0,1000,"10",345,"LCL",1,1
"07/03/2022 18:21:25",5972488,"PVT-1",19,0,9000,"10",346,"LCL",1,1
"07/03/2022 18:21:36",5972488,"PVT-1",20,0,9000,"10",311,"LCL",1,1
"07/03/2022 18:21:43",5972488,"PVT-1",21,0,6000,"10",362,"LCL",1,1
"07/03/2022 18:21:46",5972488,"PVT-1",22,0,1000,"10",510,"LCL",1,1
"07/03/2022 18:21:52",5972488,"PVT-1",23,0,4000,"10",392,"LCL",1,1
"07/03/2022 18:21:58",5972488,"PVT-1",24,0,5000,"10",313,"LCL",1,1
"07/03/2022 18:22:03",5972488,"PVT-1",25,0,3000,"10",328,"LCL",1,1
"07/03/2022 18:22:05",5972488,"PVT-1",26,0,1000,"10",379,"LCL",1,1
"07/03/2022 18:22:11",5972488,"PVT-1",27,0,4000,"10",338,"LCL",1,1
"07/03/2022 18:22:23",5972488,"PVT-1",28,0,10000,"10",508,"LCL",1,1
"07/03/2022 18:22:28",5972488,"PVT-1",29,0,4000,"10",349,"LCL",1,1
"07/03/2022 18:22:39",5972488,"PVT-1",30,0,9000,"10",322,"LCL",1,1
"07/03/2022 18:22:50",5972488,"PVT-1",31,0,9000,"10",349,"LCL",1,1
"07/03/2022 18:22:54",5972488,"PVT-1",32,0,3000,"10",374,"LCL",1,1
"07/03/2022 18:22:58",5972488,"PVT-1",33,0,2000,"10",430,"LCL",1,1
"07/03/2022 18:23:06",5972488,"PVT-1",34,0,7000,"10",341,"LCL",1,1
"07/03/2022 18:23:16",5972488,"PVT-1",35,0,8000,"10",303,"LCL",1,1
"07/03/2022 18:23:20",5972488,"PVT-1",36,0,2000,"10",419,"LCL",1,1
"07/03/2022 18:23:23",5972488,"PVT-1",37,0,2000,"10",410,"LCL",1,1
"07/03/2022 18:23:35",5972488,"PVT-1",38,0,10000,"10",335,"LCL",1,1
"07/03/2022 18:23:38",5972488,"PVT-1",39,0,1000,"10",740,"LCL",1,1
"07/03/2022 18:23:43",5972488,"PVT-1",40,0,3000,"10",428,"LCL",1,1
"07/03/2022 15:44:34",5974554,"PVT-1",1,1,3000,"11",2441.1,"LCL",1,1
"07/03/2022 15:44:46",5974554,"PVT-1",2,0,10000,"11",489,"LCL",1,1
"07/03/2022 15:44:58",5974554,"PVT-1",3,0,10000,"11",334.2,"LCL",1,1
"07/03/2022 15:45:02",5974554,"PVT-1",4,0,2000,"11",377.6,"LCL",1,1
"07/03/2022 15:45:07",5974554,"PVT-1",5,0,4000,"11",365.9,"LCL",1,1
"07/03/2022 15:45:19",5974554,"PVT-1",6,0,10000,"11",409.1,"LCL",1,1
"07/03/2022 15:45:27",5974554,"PVT-1",7,0,7000,"11",295.8,"LCL",1,1
"07/03/2022 15:45:30",5974554,"PVT-1",8,0,1000,"11",474.9,"LCL",1,1
"07/03/2022 15:45:37",5974554,"PVT-1",9,1,10000,"11",5372.3,"LCL",1,1
"07/03/2022 15:45:49",5974554,"PVT-1",10,0,8000,"11",350.3,"LCL",1,1
"07/03/2022 15:45:52",5974554,"PVT-1",11,0,1000,"11",404.3,"LCL",1,1
"07/03/2022 15:45:57",5974554,"PVT-1",12,0,4000,"11",343.7,"LCL",1,1
"07/03/2022 15:46:01",5974554,"PVT-1",13,0,2000,"11",313.6,"LCL",1,1
"07/03/2022 15:46:10",5974554,"PVT-1",14,0,8000,"11",359,"LCL",1,1
"07/03/2022 15:46:18",5974554,"PVT-1",15,0,6000,"11",384.6,"LCL",1,1
"07/03/2022 15:46:29",5974554,"PVT-1",16,0,9000,"11",341.1,"LCL",1,1
"07/03/2022 15:46:39",5974554,"PVT-1",17,0,9000,"11",314.5,"LCL",1,1
"07/03/2022 15:46:43",5974554,"PVT-1",18,0,2000,"11",333.7,"LCL",1,1
"07/03/2022 15:46:52",5974554,"PVT-1",19,0,8000,"11",312.9,"LCL",1,1
"07/03/2022 15:46:57",5974554,"PVT-1",20,0,3000,"11",303.2,"LCL",1,1
"07/03/2022 15:47:06",5974554,"PVT-1",21,0,7000,"11",340.7,"LCL",1,1
"07/03/2022 15:47:11",5974554,"PVT-1",22,0,4000,"11",330.4,"LCL",1,1
"07/03/2022 15:47:19",5974554,"PVT-1",23,0,6000,"11",317.9,"LCL",1,1
"07/03/2022 15:47:26",5974554,"PVT-1",24,0,6000,"11",356.8,"LCL",1,1
"07/03/2022 15:47:29",5974554,"PVT-1",25,0,1000,"11",413.8,"LCL",1,1
"07/03/2022 15:47:36",5974554,"PVT-1",26,0,5000,"11",359.1,"LCL",1,1
"07/03/2022 15:47:43",5974554,"PVT-1",27,0,6000,"11",348.3,"LCL",1,1
"07/03/2022 15:47:47",5974554,"PVT-1",28,0,2000,"11",397.9,"LCL",1,1
"07/03/2022 15:47:53",5974554,"PVT-1",29,0,5000,"11",307.6,"LCL",1,1
"07/03/2022 15:47:59",5974554,"PVT-1",30,0,4000,"11",359.4,"LCL",1,1
"07/03/2022 15:48:08",5974554,"PVT-1",31,0,7000,"11",383.5,"LCL",1,1
"07/03/2022 15:48:14",5974554,"PVT-1",32,0,5000,"11",391.3,"LCL",1,1
"07/03/2022 15:48:25",5974554,"PVT-1",33,0,9000,"11",376,"LCL",1,1
"07/03/2022 15:48:34",5974554,"PVT-1",34,0,7000,"11",399.2,"LCL",1,1
"07/03/2022 15:48:43",5974554,"PVT-1",35,0,8000,"11",440.5,"LCL",1,1
"07/03/2022 15:48:46",5974554,"PVT-1",36,0,1000,"11",433.3,"LCL",1,1
"07/03/2022 15:48:51",5974554,"PVT-1",37,0,3000,"11",343,"LCL",1,1
"07/03/2022 15:48:55",5974554,"PVT-1",38,0,3000,"11",392,"LCL",1,1
"07/03/2022 15:49:06",5974554,"PVT-1",39,0,9000,"11",353.3,"LCL",1,1
"07/03/2022 15:49:12",5974554,"PVT-1",40,0,5000,"11",337,"LCL",1,1
"07/03/2022 15:22:07",5974335,"PVT-1",1,0,1000,"12",1312.1,"LCL",1,1
"07/03/2022 15:22:09",5974335,"PVT-1",2,0,1000,"12",396.8,"LCL",1,1
"07/03/2022 15:22:11",5974335,"PVT-1",3,1,1000,"12",307.8,"LCL",1,1
"07/03/2022 15:22:23",5974335,"PVT-1",4,0,9000,"12",670.3,"LCL",1,1
"07/03/2022 15:22:26",5974335,"PVT-1",5,0,2000,"12",438.2,"LCL",1,1
"07/03/2022 15:22:30",5974335,"PVT-1",6,0,2000,"12",378.1,"LCL",1,1
"07/03/2022 15:22:40",5974335,"PVT-1",7,0,8000,"12",342.2,"LCL",1,1
"07/03/2022 15:22:50",5974335,"PVT-1",8,0,9000,"12",368.6,"LCL",1,1
"07/03/2022 15:22:55",5974335,"PVT-1",9,0,3000,"12",440,"LCL",1,1
"07/03/2022 15:23:03",5974335,"PVT-1",10,0,6000,"12",318.4,"LCL",1,1
"07/03/2022 15:23:08",5974335,"PVT-1",11,0,4000,"12",350.7,"LCL",1,1
"07/03/2022 15:23:12",5974335,"PVT-1",12,0,2000,"12",315.6,"LCL",1,1
"07/03/2022 15:23:15",5974335,"PVT-1",13,0,1000,"12",540.9,"LCL",1,1
"07/03/2022 15:23:21",5974335,"PVT-1",14,0,5000,"12",356.3,"LCL",1,1
"07/03/2022 15:23:30",5974335,"PVT-1",15,1,10000,"12",7116,"LCL",1,1
"07/03/2022 15:23:38",5974335,"PVT-1",16,0,6000,"12",376.8,"LCL",1,1
"07/03/2022 15:23:47",5974335,"PVT-1",17,0,7000,"12",323.2,"LCL",1,1
"07/03/2022 15:23:55",5974335,"PVT-1",18,0,7000,"12",356.9,"LCL",1,1
"07/03/2022 15:24:00",5974335,"PVT-1",19,0,3000,"12",383.6,"LCL",1,1
"07/03/2022 15:24:11",5974335,"PVT-1",20,0,10000,"12",343.2,"LCL",1,1
"07/03/2022 15:24:17",5974335,"PVT-1",21,0,4000,"12",438.9,"LCL",1,1
"07/03/2022 15:24:22",5974335,"PVT-1",22,0,3000,"12",341,"LCL",1,1
"07/03/2022 15:24:30",5974335,"PVT-1",23,0,7000,"12",345.4,"LCL",1,1
"07/03/2022 15:24:41",5974335,"PVT-1",24,0,9000,"12",363.9,"LCL",1,1
"07/03/2022 15:24:47",5974335,"PVT-1",25,0,5000,"12",372.7,"LCL",1,1
"07/03/2022 15:24:55",5974335,"PVT-1",26,1,8000,"12",6024.6,"LCL",1,1
"07/03/2022 15:25:03",5974335,"PVT-1",27,0,6000,"12",335.5,"LCL",1,1
"07/03/2022 15:25:11",5974335,"PVT-1",28,0,6000,"12",343.9,"LCL",1,1
"07/03/2022 15:25:20",5974335,"PVT-1",29,0,8000,"12",341.4,"LCL",1,1
"07/03/2022 15:25:24",5974335,"PVT-1",30,0,2000,"12",315.5,"LCL",1,1
"07/03/2022 15:25:35",5974335,"PVT-1",31,0,9000,"12",347.5,"LCL",1,1
"07/03/2022 15:25:46",5974335,"PVT-1",32,0,10000,"12",322.1,"LCL",1,1
"07/03/2022 15:25:51",5974335,"PVT-1",33,0,3000,"12",374,"LCL",1,1
"07/03/2022 15:25:59",5974335,"PVT-1",34,0,7000,"12",342.3,"LCL",1,1
"07/03/2022 15:26:05",5974335,"PVT-1",35,0,4000,"12",382.6,"LCL",1,1
"07/03/2022 15:26:17",5974335,"PVT-1",36,0,10000,"12",330.6,"LCL",1,1
"07/03/2022 15:26:26",5974335,"PVT-1",37,0,8000,"12",352.8,"LCL",1,1
"07/03/2022 15:26:33",5974335,"PVT-1",38,0,5000,"12",436.9,"LCL",1,1
"07/03/2022 15:26:40",5974335,"PVT-1",39,0,5000,"12",411.9,"LCL",1,1
"07/03/2022 15:26:45",5974335,"PVT-1",40,0,4000,"12",373.5,"LCL",1,1
"07/03/2022 15:00:53",5974106,"PVT-1",1,0,3000,"13",483.5,"LCL",1,1
"07/03/2022 15:01:00",5974106,"PVT-1",2,0,5000,"13",342.6,"LCL",1,1
"07/03/2022 15:01:06",5974106,"PVT-1",3,0,5000,"13",319.7,"LCL",1,1
"07/03/2022 15:01:12",5974106,"PVT-1",4,1,8000,"13",4120.2,"LCL",1,1
"07/03/2022 15:01:23",5974106,"PVT-1",5,0,7000,"13",358.5,"LCL",1,1
"07/03/2022 15:01:34",5974106,"PVT-1",6,0,10000,"13",315.6,"LCL",1,1
"07/03/2022 15:01:39",5974106,"PVT-1",7,0,3000,"13",329.2,"LCL",1,1
"07/03/2022 15:01:44",5974106,"PVT-1",8,0,4000,"13",314.4,"LCL",1,1
"07/03/2022 15:01:50",5974106,"PVT-1",9,0,4000,"13",259,"LCL",1,1
"07/03/2022 15:01:54",5974106,"PVT-1",10,0,3000,"13",295,"LCL",1,1
"07/03/2022 15:02:04",5974106,"PVT-1",11,0,8000,"13",353.8,"LCL",1,1
"07/03/2022 15:02:08",5974106,"PVT-1",12,0,2000,"13",425.4,"LCL",1,1
"07/03/2022 15:02:15",5974106,"PVT-1",13,0,6000,"13",335.2,"LCL",1,1
"07/03/2022 15:02:27",5974106,"PVT-1",14,0,10000,"13",357.9,"LCL",1,1
"07/03/2022 15:02:38",5974106,"PVT-1",15,0,10000,"13",313.5,"LCL",1,1
"07/03/2022 15:02:41",5974106,"PVT-1",16,0,1000,"13",499.5,"LCL",1,1
"07/03/2022 15:02:52",5974106,"PVT-1",17,0,9000,"13",309.5,"LCL",1,1
"07/03/2022 15:02:58",5974106,"PVT-1",18,0,5000,"13",323.2,"LCL",1,1
"07/03/2022 15:03:09",5974106,"PVT-1",19,0,9000,"13",292.2,"LCL",1,1
"07/03/2022 15:03:13",5974106,"PVT-1",20,0,2000,"13",514,"LCL",1,1
"07/03/2022 15:03:20",5974106,"PVT-1",21,0,6000,"13",312.3,"LCL",1,1
"07/03/2022 15:03:29",5974106,"PVT-1",22,0,7000,"13",313.3,"LCL",1,1
"07/03/2022 15:03:37",5974106,"PVT-1",23,0,7000,"13",298.9,"LCL",1,1
"07/03/2022 15:03:48",5974106,"PVT-1",24,0,9000,"13",285.9,"LCL",1,1
"07/03/2022 15:03:51",5974106,"PVT-1",25,0,2000,"13",388.2,"LCL",1,1
"07/03/2022 15:03:53",5974106,"PVT-1",26,1,6000,"13",9,"LCL",1,1
"07/03/2022 15:03:57",5974106,"PVT-1",27,0,2000,"13",422.5,"LCL",1,1
"07/03/2022 15:04:00",5974106,"PVT-1",28,0,1000,"13",396.9,"LCL",1,1
"07/03/2022 15:04:10",5974106,"PVT-1",29,0,8000,"13",283.1,"LCL",1,1
"07/03/2022 15:04:12",5974106,"PVT-1",30,1,1000,"13",942.4,"LCL",1,1
"07/03/2022 15:04:23",5974106,"PVT-1",31,0,9000,"13",299.3,"LCL",1,1
"07/03/2022 15:04:29",5974106,"PVT-1",32,0,5000,"13",366.6,"LCL",1,1
"07/03/2022 15:04:41",5974106,"PVT-1",33,0,10000,"13",309.6,"LCL",1,1
"07/03/2022 15:04:48",5974106,"PVT-1",34,0,6000,"13",286.3,"LCL",1,1
"07/03/2022 15:04:58",5974106,"PVT-1",35,0,8000,"13",342.6,"LCL",1,1
"07/03/2022 15:05:07",5974106,"PVT-1",36,0,7000,"13",284.7,"LCL",1,1
"07/03/2022 15:05:12",5974106,"PVT-1",37,0,4000,"13",311.6,"LCL",1,1
"07/03/2022 15:05:17",5974106,"PVT-1",38,0,3000,"13",324,"LCL",1,1
"07/03/2022 15:05:22",5974106,"PVT-1",39,0,4000,"13",59.5,"LCL",1,1
"07/03/2022 15:05:25",5974106,"PVT-1",40,0,1000,"13",396,"LCL",1,1
"07/03/2022 14:35:44",5973538,"PVT-1",1,0,7000,"14",431,"LCL",1,1
"07/03/2022 14:35:55",5973538,"PVT-1",2,0,9000,"14",419,"LCL",1,1
"07/03/2022 14:35:59",5973538,"PVT-1",3,0,2000,"14",420,"LCL",1,1
"07/03/2022 14:36:01",5973538,"PVT-1",4,0,1000,"14",373,"LCL",1,1
"07/03/2022 14:36:12",5973538,"PVT-1",5,0,9000,"14",381,"LCL",1,1
"07/03/2022 14:36:17",5973538,"PVT-1",6,0,3000,"14",344,"LCL",1,1
"07/03/2022 14:36:20",5973538,"PVT-1",7,0,2000,"14",386,"LCL",1,1
"07/03/2022 14:36:28",5973538,"PVT-1",8,0,6000,"14",406,"LCL",1,1
"07/03/2022 14:36:35",5973538,"PVT-1",9,0,5000,"14",392,"LCL",1,1
"07/03/2022 14:36:41",5973538,"PVT-1",10,0,5000,"14",336,"LCL",1,1
"07/03/2022 14:36:53",5973538,"PVT-1",11,0,10000,"14",386,"LCL",1,1
"07/03/2022 14:36:56",5973538,"PVT-1",12,0,2000,"14",384,"LCL",1,1
"07/03/2022 14:37:05",5973538,"PVT-1",13,0,7000,"14",381,"LCL",1,1
"07/03/2022 14:37:08",5973538,"PVT-1",14,0,1000,"14",543,"LCL",1,1
"07/03/2022 14:37:20",5973538,"PVT-1",15,0,10000,"14",448,"LCL",1,1
"07/03/2022 14:37:24",5973538,"PVT-1",16,0,3000,"14",384,"LCL",1,1
"07/03/2022 14:37:34",5973538,"PVT-1",17,0,8000,"14",374,"LCL",1,1
"07/03/2022 14:37:41",5973538,"PVT-1",18,0,5000,"14",652,"LCL",1,1
"07/03/2022 14:37:50",5973538,"PVT-1",19,0,8000,"14",377,"LCL",1,1
"07/03/2022 14:38:02",5973538,"PVT-1",20,0,10000,"14",386,"LCL",1,1
"07/03/2022 14:38:08",5973538,"PVT-1",21,0,4000,"14",361,"LCL",1,1
"07/03/2022 14:38:13",5973538,"PVT-1",22,0,4000,"14",384,"LCL",1,1
"07/03/2022 14:38:16",5973538,"PVT-1",23,0,1000,"14",523,"LCL",1,1
"07/03/2022 14:38:28",5973538,"PVT-1",24,0,10000,"14",380,"LCL",1,1
"07/03/2022 14:38:36",5973538,"PVT-1",25,0,7000,"14",369,"LCL",1,1
"07/03/2022 14:38:46",5973538,"PVT-1",26,0,8000,"14",528,"LCL",1,1
"07/03/2022 14:38:54",5973538,"PVT-1",27,0,6000,"14",522,"LCL",1,1
"07/03/2022 14:38:57",5973538,"PVT-1",28,0,2000,"14",363,"LCL",1,1
"07/03/2022 14:39:04",5973538,"PVT-1",29,0,5000,"14",389,"LCL",1,1
"07/03/2022 14:39:09",5973538,"PVT-1",30,0,3000,"14",436,"LCL",1,1
"07/03/2022 14:39:14",5973538,"PVT-1",31,0,4000,"14",359,"LCL",1,1
"07/03/2022 14:39:22",5973538,"PVT-1",32,0,6000,"14",413,"LCL",1,1
"07/03/2022 14:39:33",5973538,"PVT-1",33,0,9000,"14",444,"LCL",1,1
"07/03/2022 14:39:40",5973538,"PVT-1",34,1,7000,"14",6477,"LCL",1,1
"07/03/2022 14:39:47",5973538,"PVT-1",35,0,4000,"14",382,"LCL",1,1
"07/03/2022 14:39:52",5973538,"PVT-1",36,0,3000,"14",394,"LCL",1,1
"07/03/2022 14:40:02",5973538,"PVT-1",37,0,9000,"14",438,"LCL",1,1
"07/03/2022 14:40:12",5973538,"PVT-1",38,0,8000,"14",509,"LCL",1,1
"07/03/2022 14:40:20",5973538,"PVT-1",39,0,6000,"14",404,"LCL",1,1
"07/03/2022 14:40:22",5973538,"PVT-1",40,0,1000,"14",442,"LCL",1,1
"07/03/2022 14:27:29",5973461,"PVT-1",1,0,2000,"15",788.4,"LCL",1,1
"07/03/2022 14:27:38",5973461,"PVT-1",2,0,8000,"15",386.8,"LCL",1,1
"07/03/2022 14:27:46",5973461,"PVT-1",3,0,6000,"15",354.8,"LCL",1,1
"07/03/2022 14:27:51",5973461,"PVT-1",4,0,3000,"15",411,"LCL",1,1
"07/03/2022 14:28:00",5973461,"PVT-1",5,0,8000,"15",317.4,"LCL",1,1
"07/03/2022 14:28:06",5973461,"PVT-1",6,0,4000,"15",320.3,"LCL",1,1
"07/03/2022 14:28:16",5973461,"PVT-1",7,0,9000,"15",304.1,"LCL",1,1
"07/03/2022 14:28:23",5973461,"PVT-1",8,0,5000,"15",297.5,"LCL",1,1
"07/03/2022 14:28:30",5973461,"PVT-1",9,0,6000,"15",380.7,"LCL",1,1
"07/03/2022 14:28:42",5973461,"PVT-1",10,0,10000,"15",303.2,"LCL",1,1
"07/03/2022 14:28:49",5973461,"PVT-1",11,0,5000,"15",287.7,"LCL",1,1
"07/03/2022 14:28:52",5973461,"PVT-1",12,0,1000,"15",876.8,"LCL",1,1
"07/03/2022 14:29:00",5973461,"PVT-1",13,0,7000,"15",315,"LCL",1,1
"07/03/2022 14:29:08",5973461,"PVT-1",14,0,6000,"15",299.4,"LCL",1,1
"07/03/2022 14:29:13",5973461,"PVT-1",15,0,4000,"15",366.1,"LCL",1,1
"07/03/2022 14:29:24",5973461,"PVT-1",16,0,9000,"15",369.7,"LCL",1,1
"07/03/2022 14:29:36",5973461,"PVT-1",17,0,10000,"15",317.6,"LCL",1,1
"07/03/2022 14:29:42",5973461,"PVT-1",18,0,5000,"15",317.3,"LCL",1,1
"07/03/2022 14:29:48",5973461,"PVT-1",19,0,4000,"15",301.7,"LCL",1,1
"07/03/2022 14:29:58",5973461,"PVT-1",20,0,9000,"15",286.9,"LCL",1,1
"07/03/2022 14:30:01",5973461,"PVT-1",21,1,4000,"15",1943.9,"LCL",1,1
"07/03/2022 14:30:15",5973461,"PVT-1",22,0,9000,"15",281.2,"LCL",1,1
"07/03/2022 14:30:18",5973461,"PVT-1",23,0,1000,"15",557.5,"LCL",1,1
"07/03/2022 14:30:26",5973461,"PVT-1",24,0,6000,"15",316.7,"LCL",1,1
"07/03/2022 14:30:34",5973461,"PVT-1",25,0,7000,"15",395,"LCL",1,1
"07/03/2022 14:30:39",5973461,"PVT-1",26,0,3000,"15",298.1,"LCL",1,1
"07/03/2022 14:30:45",5973461,"PVT-1",27,0,5000,"15",275.8,"LCL",1,1
"07/03/2022 14:30:55",5973461,"PVT-1",28,0,8000,"15",288.2,"LCL",1,1
"07/03/2022 14:30:59",5973461,"PVT-1",29,0,2000,"15",426.1,"LCL",1,1
"07/03/2022 14:31:08",5973461,"PVT-1",30,0,8000,"15",308.6,"LCL",1,1
"07/03/2022 14:31:20",5973461,"PVT-1",31,0,10000,"15",296.7,"LCL",1,1
"07/03/2022 14:31:23",5973461,"PVT-1",32,0,2000,"15",446.7,"LCL",1,1
"07/03/2022 14:31:35",5973461,"PVT-1",33,0,10000,"15",337.2,"LCL",1,1
"07/03/2022 14:31:44",5973461,"PVT-1",34,0,7000,"15",303.1,"LCL",1,1
"07/03/2022 14:31:48",5973461,"PVT-1",35,0,3000,"15",371.3,"LCL",1,1
"07/03/2022 14:31:51",5973461,"PVT-1",36,0,1000,"15",378.3,"LCL",1,1
"07/03/2022 14:31:55",5973461,"PVT-1",37,0,3000,"15",331.6,"LCL",1,1
"07/03/2022 14:32:04",5973461,"PVT-1",38,0,7000,"15",458.2,"LCL",1,1
"07/03/2022 14:32:08",5973461,"PVT-1",39,0,2000,"15",425.5,"LCL",1,1
"07/03/2022 14:32:10",5973461,"PVT-1",40,0,1000,"15",380.8,"LCL",1,1
"07/03/2022 14:19:44",5973327,"PVT-1",1,0,3000,"16",882.2,"LCL",1,1
"07/03/2022 14:19:51",5973327,"PVT-1",2,0,5000,"16",385.9,"LCL",1,1
"07/03/2022 14:19:59",5973327,"PVT-1",3,0,6000,"16",305.2,"LCL",1,1
"07/03/2022 14:20:08",5973327,"PVT-1",4,0,8000,"16",305.2,"LCL",1,1
"07/03/2022 14:20:12",5973327,"PVT-1",5,0,2000,"16",423.3,"LCL",1,1
"07/03/2022 14:20:22",5973327,"PVT-1",6,0,9000,"16",295.3,"LCL",1,1
"07/03/2022 14:20:24",5973327,"PVT-1",7,1,7000,"16",768.3,"LCL",1,1
"07/03/2022 14:20:37",5973327,"PVT-1",8,0,9000,"16",306.5,"LCL",1,1
"07/03/2022 14:20:40",5973327,"PVT-1",9,0,1000,"16",687.6,"LCL",1,1
"07/03/2022 14:20:44",5973327,"PVT-1",10,0,3000,"16",301,"LCL",1,1
"07/03/2022 14:20:50",5973327,"PVT-1",11,0,4000,"16",314.4,"LCL",1,1
"07/03/2022 14:20:59",5973327,"PVT-1",12,0,8000,"16",292.8,"LCL",1,1
"07/03/2022 14:21:06",5973327,"PVT-1",13,0,5000,"16",327.2,"LCL",1,1
"07/03/2022 14:21:13",5973327,"PVT-1",14,0,6000,"16",282,"LCL",1,1
"07/03/2022 14:21:18",5973327,"PVT-1",15,0,3000,"16",307.4,"LCL",1,1
"07/03/2022 14:21:21",5973327,"PVT-1",16,0,2000,"16",321.5,"LCL",1,1
"07/03/2022 14:21:27",5973327,"PVT-1",17,0,4000,"16",275,"LCL",1,1
"07/03/2022 14:21:32",5973327,"PVT-1",18,1,6000,"16",3902.7,"LCL",1,1
"07/03/2022 14:21:40",5973327,"PVT-1",19,0,5000,"16",261.8,"LCL",1,1
"07/03/2022 14:21:47",5973327,"PVT-1",20,0,5000,"16",284,"LCL",1,1
"07/03/2022 14:21:55",5973327,"PVT-1",21,0,7000,"16",265.6,"LCL",1,1
"07/03/2022 14:21:58",5973327,"PVT-1",22,0,1000,"16",469.2,"LCL",1,1
"07/03/2022 14:22:10",5973327,"PVT-1",23,0,10000,"16",279.5,"LCL",1,1
"07/03/2022 14:22:15",5973327,"PVT-1",24,0,4000,"16",329.4,"LCL",1,1
"07/03/2022 14:22:27",5973327,"PVT-1",25,0,10000,"16",289.7,"LCL",1,1
"07/03/2022 14:22:36",5973327,"PVT-1",26,0,8000,"16",387.1,"LCL",1,1
"07/03/2022 14:22:40",5973327,"PVT-1",27,1,6000,"16",1898.4,"LCL",1,1
"07/03/2022 14:22:51",5973327,"PVT-1",28,0,9000,"16",313,"LCL",1,1
"07/03/2022 14:22:55",5973327,"PVT-1",29,0,2000,"16",275.4,"LCL",1,1
"07/03/2022 14:23:03",5973327,"PVT-1",30,0,7000,"16",306.9,"LCL",1,1
"07/03/2022 14:23:15",5973327,"PVT-1",31,0,10000,"16",432.3,"LCL",1,1
"07/03/2022 14:23:23",5973327,"PVT-1",32,0,7000,"16",446.7,"LCL",1,1
"07/03/2022 14:23:34",5973327,"PVT-1",33,0,9000,"16",318.3,"LCL",1,1
"07/03/2022 14:23:44",5973327,"PVT-1",34,0,8000,"16",594,"LCL",1,1
"07/03/2022 14:23:47",5973327,"PVT-1",35,0,1000,"16",567.3,"LCL",1,1
"07/03/2022 14:23:58",5973327,"PVT-1",36,0,10000,"16",318.6,"LCL",1,1
"07/03/2022 14:24:01",5973327,"PVT-1",37,0,1000,"16",499.7,"LCL",1,1
"07/03/2022 14:24:06",5973327,"PVT-1",38,0,3000,"16",365.5,"LCL",1,1
"07/03/2022 14:24:08",5973327,"PVT-1",39,1,2000,"16",739.7,"LCL",1,1
"07/03/2022 14:24:14",5973327,"PVT-1",40,0,4000,"16",354.2,"LCL",1,1
"07/03/2022 14:10:12",5973189,"PVT-1",1,0,10000,"17",363,"LCL",1,1
"07/03/2022 14:10:18",5973189,"PVT-1",2,0,4000,"17",372,"LCL",1,1
"07/03/2022 14:10:29",5973189,"PVT-1",3,0,10000,"17",283,"LCL",1,1
"07/03/2022 14:10:36",5973189,"PVT-1",4,0,5000,"17",262,"LCL",1,1
"07/03/2022 14:10:46",5973189,"PVT-1",5,0,8000,"17",335,"LCL",1,1
"07/03/2022 14:10:55",5973189,"PVT-1",6,0,8000,"17",285,"LCL",1,1
"07/03/2022 14:11:00",5973189,"PVT-1",7,0,3000,"17",563,"LCL",1,1
"07/03/2022 14:11:03",5973189,"PVT-1",8,0,2000,"17",294,"LCL",1,1
"07/03/2022 14:11:07",5973189,"PVT-1",9,0,2000,"17",277,"LCL",1,1
"07/03/2022 14:11:14",5973189,"PVT-1",10,0,6000,"17",300,"LCL",1,1
"07/03/2022 14:11:23",5973189,"PVT-1",11,0,7000,"17",311,"LCL",1,1
"07/03/2022 14:11:34",5973189,"PVT-1",12,1,10000,"17",9447,"LCL",1,1
"07/03/2022 14:11:39",5973189,"PVT-1",13,0,2000,"17",387,"LCL",1,1
"07/03/2022 14:11:49",5973189,"PVT-1",14,0,9000,"17",372,"LCL",1,1
"07/03/2022 14:11:57",5973189,"PVT-1",15,0,6000,"17",426,"LCL",1,1
"07/03/2022 14:12:06",5973189,"PVT-1",16,0,8000,"17",342,"LCL",1,1
"07/03/2022 14:12:09",5973189,"PVT-1",17,0,1000,"17",558,"LCL",1,1
"07/03/2022 14:12:18",5973189,"PVT-1",18,0,7000,"17",337,"LCL",1,1
"07/03/2022 14:12:23",5973189,"PVT-1",19,0,4000,"17",319,"LCL",1,1
"07/03/2022 14:12:29",5973189,"PVT-1",20,0,4000,"17",327,"LCL",1,1
"07/03/2022 14:12:32",5973189,"PVT-1",21,0,1000,"17",359,"LCL",1,1
"07/03/2022 14:12:38",5973189,"PVT-1",22,0,5000,"17",281,"LCL",1,1
"07/03/2022 14:12:49",5973189,"PVT-1",23,0,9000,"17",314,"LCL",1,1
"07/03/2022 14:13:00",5973189,"PVT-1",24,0,10000,"17",339,"LCL",1,1
"07/03/2022 14:13:03",5973189,"PVT-1",25,0,1000,"17",471,"LCL",1,1
"07/03/2022 14:13:06",5973189,"PVT-1",26,0,1000,"17",363,"LCL",1,1
"07/03/2022 14:13:16",5973189,"PVT-1",27,0,9000,"17",352,"LCL",1,1
"07/03/2022 14:13:21",5973189,"PVT-1",28,0,3000,"17",433,"LCL",1,1
"07/03/2022 14:13:26",5973189,"PVT-1",29,0,3000,"17",363,"LCL",1,1
"07/03/2022 14:13:30",5973189,"PVT-1",30,0,3000,"17",326,"LCL",1,1
"07/03/2022 14:13:39",5973189,"PVT-1",31,0,7000,"17",330,"LCL",1,1
"07/03/2022 14:13:49",5973189,"PVT-1",32,0,9000,"17",446,"LCL",1,1
"07/03/2022 14:13:59",5973189,"PVT-1",33,0,8000,"17",411,"LCL",1,1
"07/03/2022 14:14:05",5973189,"PVT-1",34,0,4000,"17",498,"LCL",1,1
"07/03/2022 14:14:11",5973189,"PVT-1",35,0,5000,"17",299,"LCL",1,1
"07/03/2022 14:14:15",5973189,"PVT-1",36,0,2000,"17",319,"LCL",1,1
"07/03/2022 14:14:22",5973189,"PVT-1",37,0,6000,"17",320,"LCL",1,1
"07/03/2022 14:14:30",5973189,"PVT-1",38,0,6000,"17",344,"LCL",1,1
"07/03/2022 14:14:39",5973189,"PVT-1",39,0,7000,"17",395,"LCL",1,1
"07/03/2022 14:14:45",5973189,"PVT-1",40,0,5000,"17",322,"LCL",1,1
"07/03/2022 14:02:19",5973055,"PVT-1",1,0,7000,"18",380.7,"LCL",1,1
"07/03/2022 14:02:22",5973055,"PVT-1",2,0,1000,"18",811.2,"LCL",1,1
"07/03/2022 14:02:29",5973055,"PVT-1",3,0,5000,"18",358.1,"LCL",1,1
"07/03/2022 14:02:38",5973055,"PVT-1",4,0,8000,"18",341.2,"LCL",1,1
"07/03/2022 14:02:50",5973055,"PVT-1",5,0,10000,"18",281.8,"LCL",1,1
"07/03/2022 14:02:55",5973055,"PVT-1",6,0,3000,"18",335.6,"LCL",1,1
"07/03/2022 14:03:02",5973055,"PVT-1",7,0,6000,"18",299.3,"LCL",1,1
"07/03/2022 14:03:09",5973055,"PVT-1",8,0,5000,"18",304.7,"LCL",1,1
"07/03/2022 14:03:19",5973055,"PVT-1",9,0,9000,"18",276.4,"LCL",1,1
"07/03/2022 14:03:29",5973055,"PVT-1",10,0,8000,"18",283,"LCL",1,1
"07/03/2022 14:03:36",5973055,"PVT-1",11,0,6000,"18",365.5,"LCL",1,1
"07/03/2022 14:03:41",5973055,"PVT-1",12,0,3000,"18",323.3,"LCL",1,1
"07/03/2022 14:03:49",5973055,"PVT-1",13,0,7000,"18",291.6,"LCL",1,1
"07/03/2022 14:03:57",5973055,"PVT-1",14,0,6000,"18",331.8,"LCL",1,1
"07/03/2022 14:04:00",5973055,"PVT-1",15,0,1000,"18",593.7,"LCL",1,1
"07/03/2022 14:04:10",5973055,"PVT-1",16,1,9000,"18",8942.5,"LCL",1,1
"07/03/2022 14:04:44",5973055,"PVT-1",17,0,8000,"18",291.9,"LCL",1,1
"07/03/2022 14:04:50",5973055,"PVT-1",18,0,4000,"18",311.1,"LCL",1,1
"07/03/2022 14:04:57",5973055,"PVT-1",19,0,6000,"18",293.8,"LCL",1,1
"07/03/2022 14:05:03",5973055,"PVT-1",20,0,4000,"18",360.2,"LCL",1,1
"07/03/2022 14:05:06",5973055,"PVT-1",21,0,2000,"18",331.4,"LCL",1,1
"07/03/2022 14:05:12",5973055,"PVT-1",22,0,4000,"18",320.3,"LCL",1,1
"07/03/2022 14:05:15",5973055,"PVT-1",23,0,2000,"18",340.1,"LCL",1,1
"07/03/2022 14:05:27",5973055,"PVT-1",24,0,10000,"18",315.5,"LCL",1,1
"07/03/2022 14:05:36",5973055,"PVT-1",25,0,7000,"18",304.7,"LCL",1,1
"07/03/2022 14:05:46",5973055,"PVT-1",26,0,9000,"18",306.2,"LCL",1,1
"07/03/2022 14:05:58",5973055,"PVT-1",27,0,10000,"18",279,"LCL",1,1
"07/03/2022 14:06:03",5973055,"PVT-1",28,0,4000,"18",384.7,"LCL",1,1
"07/03/2022 14:06:08",5973055,"PVT-1",29,0,3000,"18",348.2,"LCL",1,1
"07/03/2022 14:06:10",5973055,"PVT-1",30,0,1000,"18",355.9,"LCL",1,1
"07/03/2022 14:06:14",5973055,"PVT-1",31,0,2000,"18",301.1,"LCL",1,1
"07/03/2022 14:06:21",5973055,"PVT-1",32,0,5000,"18",305,"LCL",1,1
"07/03/2022 14:06:23",5973055,"PVT-1",33,0,1000,"18",373.8,"LCL",1,1
"07/03/2022 14:06:27",5973055,"PVT-1",34,0,2000,"18",317.9,"LCL",1,1
"07/03/2022 14:06:35",5973055,"PVT-1",35,0,7000,"18",358.3,"LCL",1,1
"07/03/2022 14:06:40",5973055,"PVT-1",36,0,3000,"18",336.8,"LCL",1,1
"07/03/2022 14:06:49",5973055,"PVT-1",37,0,8000,"18",290.6,"LCL",1,1
"07/03/2022 14:07:00",5973055,"PVT-1",38,0,9000,"18",290.6,"LCL",1,1
"07/03/2022 14:07:07",5973055,"PVT-1",39,0,5000,"18",585.9,"LCL",1,1
"07/03/2022 14:07:18",5973055,"PVT-1",40,0,10000,"18",287.1,"LCL",1,1
"07/03/2022 13:52:41",5972970,"PVT-1",1,1,7000,"19",2648,"LCL",1,1
"07/03/2022 13:52:45",5972970,"PVT-1",2,1,9000,"19",1431,"LCL",1,1
"07/03/2022 13:52:56",5972970,"PVT-1",3,0,9000,"19",492,"LCL",1,1
"07/03/2022 13:52:59",5972970,"PVT-1",4,0,1000,"19",451,"LCL",1,1
"07/03/2022 13:53:10",5972970,"PVT-1",5,0,10000,"19",367,"LCL",1,1
"07/03/2022 13:53:17",5972970,"PVT-1",6,0,5000,"19",351,"LCL",1,1
"07/03/2022 13:53:20",5972970,"PVT-1",7,0,1000,"19",393,"LCL",1,1
"07/03/2022 13:53:30",5972970,"PVT-1",8,0,9000,"19",316,"LCL",1,1
"07/03/2022 13:53:37",5972970,"PVT-1",9,0,5000,"19",301,"LCL",1,1
"07/03/2022 13:53:48",5972970,"PVT-1",10,0,10000,"19",323,"LCL",1,1
"07/03/2022 13:53:52",5972970,"PVT-1",11,0,2000,"19",351,"LCL",1,1
"07/03/2022 13:53:55",5972970,"PVT-1",12,0,1000,"19",392,"LCL",1,1
"07/03/2022 13:53:58",5972970,"PVT-1",13,1,3000,"19",1699,"LCL",1,1
"07/03/2022 13:54:04",5972970,"PVT-1",14,0,5000,"19",326,"LCL",1,1
"07/03/2022 13:54:14",5972970,"PVT-1",15,0,8000,"19",297,"LCL",1,1
"07/03/2022 13:54:22",5972970,"PVT-1",16,0,6000,"19",357,"LCL",1,1
"07/03/2022 13:54:27",5972970,"PVT-1",17,0,4000,"19",355,"LCL",1,1
"07/03/2022 13:54:36",5972970,"PVT-1",18,0,7000,"19",309,"LCL",1,1
"07/03/2022 13:54:45",5972970,"PVT-1",19,0,8000,"19",351,"LCL",1,1
"07/03/2022 13:54:56",5972970,"PVT-1",20,0,9000,"19",445,"LCL",1,1
"07/03/2022 13:55:05",5972970,"PVT-1",21,0,7000,"19",336,"LCL",1,1
"07/03/2022 13:55:14",5972970,"PVT-1",22,0,8000,"19",294,"LCL",1,1
"07/03/2022 13:55:26",5972970,"PVT-1",23,0,10000,"19",398,"LCL",1,1
"07/03/2022 13:55:31",5972970,"PVT-1",24,0,3000,"19",412,"LCL",1,1
"07/03/2022 13:55:35",5972970,"PVT-1",25,0,3000,"19",312,"LCL",1,1
"07/03/2022 13:55:38",5972970,"PVT-1",26,0,1000,"19",354,"LCL",1,1
"07/03/2022 13:55:41",5972970,"PVT-1",27,0,2000,"19",342,"LCL",1,1
"07/03/2022 13:55:47",5972970,"PVT-1",28,0,4000,"19",335,"LCL",1,1
"07/03/2022 13:55:53",5972970,"PVT-1",29,0,4000,"19",367,"LCL",1,1
"07/03/2022 13:55:59",5972970,"PVT-1",30,0,5000,"19",330,"LCL",1,1
"07/03/2022 13:56:07",5972970,"PVT-1",31,0,6000,"19",382,"LCL",1,1
"07/03/2022 13:56:11",5972970,"PVT-1",32,0,3000,"19",306,"LCL",1,1
"07/03/2022 13:56:15",5972970,"PVT-1",33,0,2000,"19",309,"LCL",1,1
"07/03/2022 13:56:18",5972970,"PVT-1",34,0,2000,"19",310,"LCL",1,1
"07/03/2022 13:56:26",5972970,"PVT-1",35,0,6000,"19",343,"LCL",1,1
"07/03/2022 13:56:35",5972970,"PVT-1",36,0,7000,"19",328,"LCL",1,1
"07/03/2022 13:56:42",5972970,"PVT-1",37,0,6000,"19",290,"LCL",1,1
"07/03/2022 13:56:52",5972970,"PVT-1",38,0,8000,"19",312,"LCL",1,1
"07/03/2022 13:57:03",5972970,"PVT-1",39,0,10000,"19",278,"LCL",1,1
"07/03/2022 13:57:09",5972970,"PVT-1",40,0,4000,"19",379,"LCL",1,1
"07/03/2022 13:26:36",5972581,"PVT-1",1,0,4000,"20",317.8,"LCL",1,1
"07/03/2022 13:26:46",5972581,"PVT-1",2,0,9000,"20",329.4,"LCL",1,1
"07/03/2022 13:26:55",5972581,"PVT-1",3,0,7000,"20",282.1,"LCL",1,1
"07/03/2022 13:27:04",5972581,"PVT-1",4,0,8000,"20",320.4,"LCL",1,1
"07/03/2022 13:27:12",5972581,"PVT-1",5,0,6000,"20",294.9,"LCL",1,1
"07/03/2022 13:27:21",5972581,"PVT-1",6,0,8000,"20",289.7,"LCL",1,1
"07/03/2022 13:27:24",5972581,"PVT-1",7,0,1000,"20",484.6,"LCL",1,1
"07/03/2022 13:27:36",5972581,"PVT-1",8,0,10000,"20",335.4,"LCL",1,1
"07/03/2022 13:27:47",5972581,"PVT-1",9,0,10000,"20",324.6,"LCL",1,1
"07/03/2022 13:27:51",5972581,"PVT-1",10,0,2000,"20",322.4,"LCL",1,1
"07/03/2022 13:27:54",5972581,"PVT-1",11,0,1000,"20",390.4,"LCL",1,1
"07/03/2022 13:28:03",5972581,"PVT-1",12,0,8000,"20",304.8,"LCL",1,1
"07/03/2022 13:28:07",5972581,"PVT-1",13,0,2000,"20",303.1,"LCL",1,1
"07/03/2022 13:28:18",5972581,"PVT-1",14,0,10000,"20",279.2,"LCL",1,1
"07/03/2022 13:28:25",5972581,"PVT-1",15,0,5000,"20",280.1,"LCL",1,1
"07/03/2022 13:28:30",5972581,"PVT-1",16,0,4000,"20",302.3,"LCL",1,1
"07/03/2022 13:28:33",5972581,"PVT-1",17,0,1000,"20",389.3,"LCL",1,1
"07/03/2022 13:28:40",5972581,"PVT-1",18,0,5000,"20",295.5,"LCL",1,1
"07/03/2022 13:28:43",5972581,"PVT-1",19,0,2000,"20",319.1,"LCL",1,1
"07/03/2022 13:28:48",5972581,"PVT-1",20,0,3000,"20",308.2,"LCL",1,1
"07/03/2022 13:28:56",5972581,"PVT-1",21,0,7000,"20",315.7,"LCL",1,1
"07/03/2022 13:29:06",5972581,"PVT-1",22,0,8000,"20",290.2,"LCL",1,1
"07/03/2022 13:29:16",5972581,"PVT-1",23,0,9000,"20",326.6,"LCL",1,1
"07/03/2022 13:29:25",5972581,"PVT-1",24,0,7000,"20",270,"LCL",1,1
"07/03/2022 13:29:33",5972581,"PVT-1",25,0,6000,"20",356,"LCL",1,1
"07/03/2022 13:29:39",5972581,"PVT-1",26,0,5000,"20",314.1,"LCL",1,1
"07/03/2022 13:29:43",5972581,"PVT-1",27,0,2000,"20",374.9,"LCL",1,1
"07/03/2022 13:29:53",5972581,"PVT-1",28,0,9000,"20",308.1,"LCL",1,1
"07/03/2022 13:30:05",5972581,"PVT-1",29,0,10000,"20",299.9,"LCL",1,1
"07/03/2022 13:30:11",5972581,"PVT-1",30,0,4000,"20",372.5,"LCL",1,1
"07/03/2022 13:30:16",5972581,"PVT-1",31,0,4000,"20",312.1,"LCL",1,1
"07/03/2022 13:30:24",5972581,"PVT-1",32,0,6000,"20",291.2,"LCL",1,1
"07/03/2022 13:30:28",5972581,"PVT-1",33,0,3000,"20",341.1,"LCL",1,1
"07/03/2022 13:30:33",5972581,"PVT-1",34,0,3000,"20",354,"LCL",1,1
"07/03/2022 13:30:41",5972581,"PVT-1",35,0,7000,"20",340.4,"LCL",1,1
"07/03/2022 13:30:49",5972581,"PVT-1",36,0,6000,"20",270.9,"LCL",1,1
"07/03/2022 13:31:00",5972581,"PVT-1",37,0,9000,"20",316,"LCL",1,1
"07/03/2022 13:31:06",5972581,"PVT-1",38,0,5000,"20",309,"LCL",1,1
"07/03/2022 13:31:11",5972581,"PVT-1",39,0,3000,"20",335.8,"LCL",1,1
"07/03/2022 13:31:13",5972581,"PVT-1",40,0,1000,"20",436,"LCL",1,1
"07/03/2022 13:04:23",5972302,"PVT-1",1,0,3000,"21",355.3,"LCL",1,1
"07/03/2022 13:04:33",5972302,"PVT-1",2,0,8000,"21",313.7,"LCL",1,1
"07/03/2022 13:04:35",5972302,"PVT-1",3,0,1000,"21",521.3,"LCL",1,1
"07/03/2022 13:04:46",5972302,"PVT-1",4,0,9000,"21",373.1,"LCL",1,1
"07/03/2022 13:04:53",5972302,"PVT-1",5,0,5000,"21",331.3,"LCL",1,1
"07/03/2022 13:05:00",5972302,"PVT-1",6,0,6000,"21",340.3,"LCL",1,1
"07/03/2022 13:05:04",5972302,"PVT-1",7,1,7000,"21",2337,"LCL",1,1
"07/03/2022 13:05:11",5972302,"PVT-1",8,0,4000,"21",295.8,"LCL",1,1
"07/03/2022 13:05:19",5972302,"PVT-1",9,1,7000,"21",6771.7,"LCL",1,1
"07/03/2022 13:05:31",5972302,"PVT-1",10,1,10000,"21",8531,"LCL",1,1
"07/03/2022 13:05:35",5972302,"PVT-1",11,0,1000,"21",429.3,"LCL",1,1
"07/03/2022 13:05:40",5972302,"PVT-1",12,0,3000,"21",323,"LCL",1,1
"07/03/2022 13:05:50",5972302,"PVT-1",13,0,9000,"21",338.7,"LCL",1,1
"07/03/2022 13:05:58",5972302,"PVT-1",14,0,6000,"21",442.3,"LCL",1,1
"07/03/2022 13:06:04",5972302,"PVT-1",15,1,6000,"21",5053.9,"LCL",1,1
"07/03/2022 13:06:14",5972302,"PVT-1",16,0,7000,"21",321.1,"LCL",1,1
"07/03/2022 13:06:18",5972302,"PVT-1",17,0,3000,"21",271.9,"LCL",1,1
"07/03/2022 13:06:28",5972302,"PVT-1",18,0,8000,"21",302.4,"LCL",1,1
"07/03/2022 13:06:33",5972302,"PVT-1",19,1,10000,"21",4125.6,"LCL",1,1
"07/03/2022 13:06:40",5972302,"PVT-1",20,0,4000,"21",323,"LCL",1,1
"07/03/2022 13:06:45",5972302,"PVT-1",21,0,4000,"21",316.6,"LCL",1,1
"07/03/2022 13:06:49",5972302,"PVT-1",22,0,2000,"21",359.4,"LCL",1,1
"07/03/2022 13:06:55",5972302,"PVT-1",23,0,4000,"21",446.3,"LCL",1,1
"07/03/2022 13:06:58",5972302,"PVT-1",24,0,1000,"21",850.2,"LCL",1,1
"07/03/2022 13:07:01",5972302,"PVT-1",25,0,2000,"21",357.4,"LCL",1,1
"07/03/2022 13:07:04",5972302,"PVT-1",26,0,1000,"21",337.8,"LCL",1,1
"07/03/2022 13:07:06",5972302,"PVT-1",27,1,10000,"21",450.7,"LCL",1,1
"07/03/2022 13:07:13",5972302,"PVT-1",28,0,5000,"21",310.4,"LCL",1,1
"07/03/2022 13:07:18",5972302,"PVT-1",29,1,6000,"21",3787,"LCL",1,1
"07/03/2022 13:07:28",5972302,"PVT-1",30,1,9000,"21",8815,"LCL",1,1
"07/03/2022 13:07:38",5972302,"PVT-1",31,0,7000,"21",393.6,"LCL",1,1
"07/03/2022 13:07:49",5972302,"PVT-1",32,0,9000,"21",581.6,"LCL",1,1
"07/03/2022 13:07:56",5972302,"PVT-1",33,0,5000,"21",394.1,"LCL",1,1
"07/03/2022 13:07:59",5972302,"PVT-1",34,0,2000,"21",406.4,"LCL",1,1
"07/03/2022 13:08:09",5972302,"PVT-1",35,0,8000,"21",435.9,"LCL",1,1
"07/03/2022 13:08:21",5972302,"PVT-1",36,0,10000,"21",378.5,"LCL",1,1
"07/03/2022 13:08:30",5972302,"PVT-1",37,0,8000,"21",324.6,"LCL",1,1
"07/03/2022 13:08:37",5972302,"PVT-1",38,0,5000,"21",454.4,"LCL",1,1
"07/03/2022 13:08:42",5972302,"PVT-1",39,0,3000,"21",359.5,"LCL",1,1
"07/03/2022 13:08:45",5972302,"PVT-1",40,0,2000,"21",318.6,"LCL",1,1
"07/03/2022 12:41:43",5971960,"PVT-1",1,0,6000,"22",740,"LCL",1,1
"07/03/2022 12:41:46",5971960,"PVT-1",2,0,2000,"22",331.5,"LCL",1,1
"07/03/2022 12:41:48",5971960,"PVT-1",3,1,3000,"22",283.7,"LCL",1,1
"07/03/2022 12:41:57",5971960,"PVT-1",4,0,5000,"22",282.5,"LCL",1,1
"07/03/2022 12:42:00",5971960,"PVT-1",5,0,1000,"22",295.9,"LCL",1,1
"07/03/2022 12:42:03",5971960,"PVT-1",6,1,8000,"22",1668,"LCL",1,1
"07/03/2022 12:42:08",5971960,"PVT-1",7,0,3000,"22",286.8,"LCL",1,1
"07/03/2022 12:42:11",5971960,"PVT-1",8,0,1000,"22",321.8,"LCL",1,1
"07/03/2022 12:42:15",5971960,"PVT-1",9,0,2000,"22",248.2,"LCL",1,1
"07/03/2022 12:42:25",5971960,"PVT-1",10,0,9000,"22",306.6,"LCL",1,1
"07/03/2022 12:42:29",5971960,"PVT-1",11,0,2000,"22",323.6,"LCL",1,1
"07/03/2022 12:42:33",5971960,"PVT-1",12,1,7000,"22",3294.5,"LCL",1,1
"07/03/2022 12:42:42",5971960,"PVT-1",13,0,7000,"22",246.4,"LCL",1,1
"07/03/2022 12:42:45",5971960,"PVT-1",14,1,5000,"22",1252.7,"LCL",1,1
"07/03/2022 12:42:53",5971960,"PVT-1",15,1,10000,"22",7209.7,"LCL",1,1
"07/03/2022 12:42:58",5971960,"PVT-1",16,0,3000,"22",282.1,"LCL",1,1
"07/03/2022 12:43:02",5971960,"PVT-1",17,0,3000,"22",299.8,"LCL",1,1
"07/03/2022 12:43:11",5971960,"PVT-1",18,0,7000,"22",323.3,"LCL",1,1
"07/03/2022 12:43:19",5971960,"PVT-1",19,1,8000,"22",6746.9,"LCL",1,1
"07/03/2022 12:43:25",5971960,"PVT-1",20,0,4000,"22",262.3,"LCL",1,1
"07/03/2022 12:43:29",5971960,"PVT-1",21,1,4000,"22",3433.6,"LCL",1,1
"07/03/2022 12:43:36",5971960,"PVT-1",22,0,5000,"22",318.8,"LCL",1,1
"07/03/2022 12:43:45",5971960,"PVT-1",23,0,7000,"22",298.7,"LCL",1,1
"07/03/2022 12:43:55",5971960,"PVT-1",24,0,9000,"22",374.8,"LCL",1,1
"07/03/2022 12:44:00",5971960,"PVT-1",25,1,6000,"22",3819.5,"LCL",1,1
"07/03/2022 12:44:03",5971960,"PVT-1",26,0,1000,"22",537.9,"LCL",1,1
"07/03/2022 12:44:15",5971960,"PVT-1",27,0,10000,"22",322.2,"LCL",1,1
"07/03/2022 12:44:22",5971960,"PVT-1",28,0,6000,"22",330.9,"LCL",1,1
"07/03/2022 12:44:24",5971960,"PVT-1",29,1,4000,"22",477.1,"LCL",1,1
"07/03/2022 12:44:28",5971960,"PVT-1",30,0,1000,"22",1419.8,"LCL",1,1
"07/03/2022 12:44:40",5971960,"PVT-1",31,0,10000,"22",421.1,"LCL",1,1
"07/03/2022 12:44:47",5971960,"PVT-1",32,0,6000,"22",288.7,"LCL",1,1
"07/03/2022 12:44:58",5971960,"PVT-1",33,0,9000,"22",252.7,"LCL",1,1
"07/03/2022 12:45:01",5971960,"PVT-1",34,0,2000,"22",323.6,"LCL",1,1
"07/03/2022 12:45:11",5971960,"PVT-1",35,0,8000,"22",89,"LCL",1,1
"07/03/2022 12:45:20",5971960,"PVT-1",36,0,8000,"22",272.9,"LCL",1,1
"07/03/2022 12:45:27",5971960,"PVT-1",37,0,5000,"22",265.5,"LCL",1,1
"07/03/2022 12:45:31",5971960,"PVT-1",38,1,4000,"22",3047.5,"LCL",1,1
"07/03/2022 12:45:42",5971960,"PVT-1",39,0,9000,"22",289.4,"LCL",1,1
"07/03/2022 12:45:44",5971960,"PVT-1",40,1,10000,"22",474.1,"LCL",1,1
"20/02/2022 12:37:03",5823435,"PVT-1",1,0,8000,"23",450.5,"LCL",1,1
"20/02/2022 12:37:09",5823435,"PVT-1",2,0,4000,"23",450.8,"LCL",1,1
"20/02/2022 12:37:21",5823435,"PVT-1",3,0,10000,"23",352.1,"LCL",1,1
"20/02/2022 12:37:28",5823435,"PVT-1",4,0,6000,"23",376.8,"LCL",1,1
"20/02/2022 12:37:36",5823435,"PVT-1",5,0,6000,"23",432.1,"LCL",1,1
"20/02/2022 12:37:48",5823435,"PVT-1",6,0,10000,"23",409.4,"LCL",1,1
"20/02/2022 12:37:53",5823435,"PVT-1",7,0,4000,"23",372.6,"LCL",1,1
"20/02/2022 12:37:59",5823435,"PVT-1",8,0,4000,"23",478.2,"LCL",1,1
"20/02/2022 12:38:06",5823435,"PVT-1",9,1,9000,"23",5739.8,"LCL",1,1
"20/02/2022 12:38:15",5823435,"PVT-1",10,0,5000,"23",406.1,"LCL",1,1
"20/02/2022 12:38:18",5823435,"PVT-1",11,0,1000,"23",573.1,"LCL",1,1
"20/02/2022 12:38:30",5823435,"PVT-1",12,0,10000,"23",370.1,"LCL",1,1
"20/02/2022 12:38:33",5823435,"PVT-1",13,0,2000,"23",433.2,"LCL",1,1
"20/02/2022 12:38:44",5823435,"PVT-1",14,0,9000,"23",331.8,"LCL",1,1
"20/02/2022 12:38:53",5823435,"PVT-1",15,0,7000,"23",407.5,"LCL",1,1
"20/02/2022 12:39:03",5823435,"PVT-1",16,0,9000,"23",345.7,"LCL",1,1
"20/02/2022 12:39:10",5823435,"PVT-1",17,0,5000,"23",443.8,"LCL",1,1
"20/02/2022 12:39:19",5823435,"PVT-1",18,0,7000,"23",438.3,"LCL",1,1
"20/02/2022 12:39:28",5823435,"PVT-1",19,0,8000,"23",354.8,"LCL",1,1
"20/02/2022 12:39:32",5823435,"PVT-1",20,0,2000,"23",462.5,"LCL",1,1
"20/02/2022 12:39:36",5823435,"PVT-1",21,0,3000,"23",360.9,"LCL",1,1
"20/02/2022 12:39:40",5823435,"PVT-1",22,0,2000,"23",388.8,"LCL",1,1
"20/02/2022 12:39:43",5823435,"PVT-1",23,0,1000,"23",451.1,"LCL",1,1
"20/02/2022 12:39:52",5823435,"PVT-1",24,1,8000,"23",7902.2,"LCL",1,1
"20/02/2022 12:39:58",5823435,"PVT-1",25,0,3000,"23",434.1,"LCL",1,1
"20/02/2022 12:40:09",5823435,"PVT-1",26,0,9000,"23",393.4,"LCL",1,1
"20/02/2022 12:40:16",5823435,"PVT-1",27,0,5000,"23",446.7,"LCL",1,1
"20/02/2022 12:40:22",5823435,"PVT-1",28,0,4000,"23",492.6,"LCL",1,1
"20/02/2022 12:40:29",5823435,"PVT-1",29,0,6000,"23",461.1,"LCL",1,1
"20/02/2022 12:40:33",5823435,"PVT-1",30,0,2000,"23",390.5,"LCL",1,1
"20/02/2022 12:40:35",5823435,"PVT-1",31,0,1000,"23",394.2,"LCL",1,1
"20/02/2022 12:40:45",5823435,"PVT-1",32,0,8000,"23",377.6,"LCL",1,1
"20/02/2022 12:40:54",5823435,"PVT-1",33,0,7000,"23",362.8,"LCL",1,1
"20/02/2022 12:41:02",5823435,"PVT-1",34,0,7000,"23",382.1,"LCL",1,1
"20/02/2022 12:41:05",5823435,"PVT-1",35,0,1000,"23",465.6,"LCL",1,1
"20/02/2022 12:41:13",5823435,"PVT-1",36,0,6000,"23",474.8,"LCL",1,1
"20/02/2022 12:41:17",5823435,"PVT-1",37,0,3000,"23",429.9,"LCL",1,1
"20/02/2022 12:41:22",5823435,"PVT-1",38,0,3000,"23",423.3,"LCL",1,1
"20/02/2022 12:41:29",5823435,"PVT-1",39,0,5000,"23",373.8,"LCL",1,1
"20/02/2022 12:41:40",5823435,"PVT-1",40,0,10000,"23",415.8,"LCL",1,1
"17/02/2022 09:10:09",5794738,"PVT-1",1,0,8000,"24",322.1,"LCL",1,1
"17/02/2022 09:10:12",5794738,"PVT-1",2,1,6000,"24",2106.9,"LCL",1,1
"17/02/2022 09:10:26",5794738,"PVT-1",3,0,10000,"24",309.4,"LCL",1,1
"17/02/2022 09:10:30",5794738,"PVT-1",4,0,2000,"24",534.3,"LCL",1,1
"17/02/2022 09:10:39",5794738,"PVT-1",5,1,9000,"24",8046.5,"LCL",1,1
"17/02/2022 09:10:44",5794738,"PVT-1",6,0,3000,"24",319.5,"LCL",1,1
"17/02/2022 09:10:49",5794738,"PVT-1",7,0,3000,"24",338.4,"LCL",1,1
"17/02/2022 09:10:57",5794738,"PVT-1",8,0,6000,"24",380.3,"LCL",1,1
"17/02/2022 09:10:59",5794738,"PVT-1",9,0,1000,"24",387.7,"LCL",1,1
"17/02/2022 09:11:06",5794738,"PVT-1",10,0,5000,"24",397.8,"LCL",1,1
"17/02/2022 09:11:16",5794738,"PVT-1",11,0,8000,"24",334.3,"LCL",1,1
"17/02/2022 09:11:18",5794738,"PVT-1",12,0,1000,"24",613.8,"LCL",1,1
"17/02/2022 09:11:28",5794738,"PVT-1",13,0,8000,"24",348.5,"LCL",1,1
"17/02/2022 09:11:40",5794738,"PVT-1",14,0,10000,"24",324.7,"LCL",1,1
"17/02/2022 09:11:44",5794738,"PVT-1",15,1,9000,"24",3082.2,"LCL",1,1
"17/02/2022 09:11:53",5794738,"PVT-1",16,0,7000,"24",372.7,"LCL",1,1
"17/02/2022 09:12:00",5794738,"PVT-1",17,0,6000,"24",302.5,"LCL",1,1
"17/02/2022 09:12:05",5794738,"PVT-1",18,0,3000,"24",289,"LCL",1,1
"17/02/2022 09:12:09",5794738,"PVT-1",19,0,2000,"24",326.9,"LCL",1,1
"17/02/2022 09:12:12",5794738,"PVT-1",20,0,2000,"24",337.8,"LCL",1,1
"17/02/2022 09:12:18",5794738,"PVT-1",21,0,4000,"24",307.8,"LCL",1,1
"17/02/2022 09:12:20",5794738,"PVT-1",22,0,1000,"24",373.1,"LCL",1,1
"17/02/2022 09:12:23",5794738,"PVT-1",23,0,1000,"24",355.7,"LCL",1,1
"17/02/2022 09:12:32",5794738,"PVT-1",24,0,7000,"24",355.2,"LCL",1,1
"17/02/2022 09:12:38",5794738,"PVT-1",25,0,5000,"24",367,"LCL",1,1
"17/02/2022 09:12:49",5794738,"PVT-1",26,0,9000,"24",292.8,"LCL",1,1
"17/02/2022 09:12:52",5794738,"PVT-1",27,1,6000,"24",2489.3,"LCL",1,1
"17/02/2022 09:13:04",5794738,"PVT-1",28,0,10000,"24",343.2,"LCL",1,1
"17/02/2022 09:13:13",5794738,"PVT-1",29,0,7000,"24",351,"LCL",1,1
"17/02/2022 09:13:18",5794738,"PVT-1",30,0,4000,"24",332.8,"LCL",1,1
"17/02/2022 09:13:24",5794738,"PVT-1",31,0,4000,"24",372.4,"LCL",1,1
"17/02/2022 09:13:29",5794738,"PVT-1",32,0,3000,"24",354.3,"LCL",1,1
"17/02/2022 09:13:39",5794738,"PVT-1",33,0,9000,"24",313.3,"LCL",1,1
"17/02/2022 09:13:46",5794738,"PVT-1",34,0,5000,"24",369.4,"LCL",1,1
"17/02/2022 09:13:51",5794738,"PVT-1",35,0,4000,"24",367.9,"LCL",1,1
"17/02/2022 09:13:58",5794738,"PVT-1",36,0,5000,"24",346.8,"LCL",1,1
"17/02/2022 09:14:02",5794738,"PVT-1",37,0,2000,"24",349,"LCL",1,1
"17/02/2022 09:14:10",5794738,"PVT-1",38,0,7000,"24",389.8,"LCL",1,1
"17/02/2022 09:14:22",5794738,"PVT-1",39,0,10000,"24",331.1,"LCL",1,1
"17/02/2022 09:14:31",5794738,"PVT-1",40,0,8000,"24",345.4,"LCL",1,1
"16/02/2022 16:22:41",5788709,"PVT-1",1,0,10000,"25",362.3,"LCL",1,1
"16/02/2022 16:22:46",5788709,"PVT-1",2,0,3000,"25",412.4,"LCL",1,1
"16/02/2022 16:22:49",5788709,"PVT-1",3,0,2000,"25",329.1,"LCL",1,1
"16/02/2022 16:23:00",5788709,"PVT-1",4,0,9000,"25",342.9,"LCL",1,1
"16/02/2022 16:23:03",5788709,"PVT-1",5,0,1000,"25",390.8,"LCL",1,1
"16/02/2022 16:23:09",5788709,"PVT-1",6,0,5000,"25",379,"LCL",1,1
"16/02/2022 16:23:12",5788709,"PVT-1",7,0,1000,"25",290.4,"LCL",1,1
"16/02/2022 16:23:16",5788709,"PVT-1",8,0,3000,"25",315.3,"LCL",1,1
"16/02/2022 16:23:27",5788709,"PVT-1",9,0,9000,"25",347.6,"LCL",1,1
"16/02/2022 16:23:32",5788709,"PVT-1",10,0,3000,"25",369.7,"LCL",1,1
"16/02/2022 16:23:43",5788709,"PVT-1",11,0,10000,"25",400.6,"LCL",1,1
"16/02/2022 16:23:53",5788709,"PVT-1",12,0,8000,"25",322.8,"LCL",1,1
"16/02/2022 16:23:56",5788709,"PVT-1",13,0,2000,"25",417.9,"LCL",1,1
"16/02/2022 16:24:03",5788709,"PVT-1",14,0,5000,"25",372.1,"LCL",1,1
"16/02/2022 16:24:15",5788709,"PVT-1",15,0,10000,"25",340.8,"LCL",1,1
"16/02/2022 16:24:17",5788709,"PVT-1",16,0,1000,"25",312.4,"LCL",1,1
"16/02/2022 16:24:25",5788709,"PVT-1",17,0,6000,"25",311.4,"LCL",1,1
"16/02/2022 16:24:29",5788709,"PVT-1",18,0,3000,"25",334.4,"LCL",1,1
"16/02/2022 16:24:38",5788709,"PVT-1",19,0,7000,"25",381.7,"LCL",1,1
"16/02/2022 16:24:44",5788709,"PVT-1",20,0,4000,"25",324.1,"LCL",1,1
"16/02/2022 16:24:52",5788709,"PVT-1",21,0,7000,"25",354.7,"LCL",1,1
"16/02/2022 16:25:03",5788709,"PVT-1",22,0,9000,"25",370.7,"LCL",1,1
"16/02/2022 16:25:08",5788709,"PVT-1",23,0,4000,"25",345.2,"LCL",1,1
"16/02/2022 16:25:16",5788709,"PVT-1",24,0,6000,"25",450,"LCL",1,1
"16/02/2022 16:25:26",5788709,"PVT-1",25,0,8000,"25",356.5,"LCL",1,1
"16/02/2022 16:25:35",5788709,"PVT-1",26,0,8000,"25",322.8,"LCL",1,1
"16/02/2022 16:25:39",5788709,"PVT-1",27,0,2000,"25",346.3,"LCL",1,1
"16/02/2022 16:25:44",5788709,"PVT-1",28,0,4000,"25",342.6,"LCL",1,1
"16/02/2022 16:25:53",5788709,"PVT-1",29,0,7000,"25",377.8,"LCL",1,1
"16/02/2022 16:25:57",5788709,"PVT-1",30,0,2000,"25",339.9,"LCL",1,1
"16/02/2022 16:26:02",5788709,"PVT-1",31,0,4000,"25",348.2,"LCL",1,1
"16/02/2022 16:26:14",5788709,"PVT-1",32,0,10000,"25",403,"LCL",1,1
"16/02/2022 16:26:20",5788709,"PVT-1",33,0,5000,"25",370.6,"LCL",1,1
"16/02/2022 16:26:23",5788709,"PVT-1",34,0,1000,"25",624.4,"LCL",1,1
"16/02/2022 16:26:32",5788709,"PVT-1",35,0,7000,"25",305.2,"LCL",1,1
"16/02/2022 16:26:39",5788709,"PVT-1",36,0,5000,"25",361.2,"LCL",1,1
"16/02/2022 16:26:46",5788709,"PVT-1",37,0,6000,"25",379.1,"LCL",1,1
"16/02/2022 16:26:57",5788709,"PVT-1",38,0,9000,"25",411,"LCL",1,1
"16/02/2022 16:27:04",5788709,"PVT-1",39,0,6000,"25",338.2,"LCL",1,1
"16/02/2022 16:27:14",5788709,"PVT-1",40,0,8000,"25",332.3,"LCL",1,1
"16/02/2022 16:11:25",5788569,"PVT-1",1,1,5000,"26",3713.5,"LCL",1,1
"16/02/2022 16:11:41",5788569,"PVT-1",2,0,10000,"26",332.6,"LCL",1,1
"16/02/2022 16:11:50",5788569,"PVT-1",3,0,7000,"26",328,"LCL",1,1
"16/02/2022 16:11:55",5788569,"PVT-1",4,0,4000,"26",297.9,"LCL",1,1
"16/02/2022 16:12:02",5788569,"PVT-1",5,0,5000,"26",245,"LCL",1,1
"16/02/2022 16:12:05",5788569,"PVT-1",6,0,2000,"26",312.7,"LCL",1,1
"16/02/2022 16:12:11",5788569,"PVT-1",7,0,4000,"26",289.1,"LCL",1,1
"16/02/2022 16:12:20",5788569,"PVT-1",8,0,7000,"26",254.4,"LCL",1,1
"16/02/2022 16:12:25",5788569,"PVT-1",9,0,4000,"26",254.8,"LCL",1,1
"16/02/2022 16:12:28",5788569,"PVT-1",10,0,1000,"26",384.9,"LCL",1,1
"16/02/2022 16:12:38",5788569,"PVT-1",11,0,9000,"26",239.6,"LCL",1,1
"16/02/2022 16:12:40",5788569,"PVT-1",12,1,4000,"26",810.1,"LCL",1,1
"16/02/2022 16:12:45",5788569,"PVT-1",13,1,7000,"26",1147.1,"LCL",1,1
"16/02/2022 16:12:50",5788569,"PVT-1",14,0,3000,"26",320.4,"LCL",1,1
"16/02/2022 16:12:59",5788569,"PVT-1",15,0,7000,"26",265.7,"LCL",1,1
"16/02/2022 16:13:01",5788569,"PVT-1",16,0,1000,"26",357.5,"LCL",1,1
"16/02/2022 16:13:05",5788569,"PVT-1",17,0,2000,"26",295,"LCL",1,1
"16/02/2022 16:13:09",5788569,"PVT-1",18,0,3000,"26",246.3,"LCL",1,1
"16/02/2022 16:13:14",5788569,"PVT-1",19,0,3000,"26",264.1,"LCL",1,1
"16/02/2022 16:13:19",5788569,"PVT-1",20,1,8000,"26",3720,"LCL",1,1
"16/02/2022 16:13:30",5788569,"PVT-1",21,0,8000,"26",260.1,"LCL",1,1
"16/02/2022 16:13:35",5788569,"PVT-1",22,1,6000,"26",3634.6,"LCL",1,1
"16/02/2022 16:13:43",5788569,"PVT-1",23,0,5000,"26",271.8,"LCL",1,1
"16/02/2022 16:13:50",5788569,"PVT-1",24,0,6000,"26",313.4,"LCL",1,1
"16/02/2022 16:13:56",5788569,"PVT-1",25,1,8000,"26",5070.4,"LCL",1,1
"16/02/2022 16:14:09",5788569,"PVT-1",26,0,10000,"26",305.1,"LCL",1,1
"16/02/2022 16:14:12",5788569,"PVT-1",27,1,10000,"26",1516.8,"LCL",1,1
"16/02/2022 16:14:23",5788569,"PVT-1",28,0,9000,"26",295.1,"LCL",1,1
"16/02/2022 16:14:26",5788569,"PVT-1",29,0,1000,"26",368.8,"LCL",1,1
"16/02/2022 16:14:27",5788569,"PVT-1",30,1,9000,"26",313.1,"LCL",1,1
"16/02/2022 16:14:38",5788569,"PVT-1",31,0,8000,"26",261.2,"LCL",1,1
"16/02/2022 16:14:45",5788569,"PVT-1",32,0,6000,"26",313.4,"LCL",1,1
"16/02/2022 16:14:53",5788569,"PVT-1",33,0,6000,"26",251.1,"LCL",1,1
"16/02/2022 16:14:56",5788569,"PVT-1",34,0,2000,"26",326.8,"LCL",1,1
"16/02/2022 16:14:59",5788569,"PVT-1",35,0,1000,"26",310,"LCL",1,1
"16/02/2022 16:15:09",5788569,"PVT-1",36,0,9000,"26",310.3,"LCL",1,1
"16/02/2022 16:15:17",5788569,"PVT-1",37,1,10000,"26",6051.9,"LCL",1,1
"16/02/2022 16:15:21",5788569,"PVT-1",38,0,2000,"26",296.1,"LCL",1,1
"16/02/2022 16:15:26",5788569,"PVT-1",39,0,3000,"26",338.8,"LCL",1,1
"16/02/2022 16:15:32",5788569,"PVT-1",40,0,5000,"26",288.2,"LCL",1,1
"16/02/2022 12:27:09",5786212,"PVT-1",1,0,8000,"27",405,"LCL",1,1
"16/02/2022 12:27:18",5786212,"PVT-1",2,0,7000,"27",358,"LCL",1,1
"16/02/2022 12:27:22",5786212,"PVT-1",3,0,3000,"27",419,"LCL",1,1
"16/02/2022 12:27:28",5786212,"PVT-1",4,1,5000,"27",4286,"LCL",1,1
"16/02/2022 12:27:33",5786212,"PVT-1",5,0,3000,"27",336,"LCL",1,1
"16/02/2022 12:27:38",5786212,"PVT-1",6,0,4000,"27",339,"LCL",1,1
"16/02/2022 12:27:43",5786212,"PVT-1",7,1,10000,"27",3246,"LCL",1,1
"16/02/2022 12:27:49",5786212,"PVT-1",8,0,4000,"27",309,"LCL",1,1
"16/02/2022 12:27:51",5786212,"PVT-1",9,0,1000,"27",398,"LCL",1,1
"16/02/2022 12:27:54",5786212,"PVT-1",10,0,1000,"27",374,"LCL",1,1
"16/02/2022 12:28:00",5786212,"PVT-1",11,0,5000,"27",297,"LCL",1,1
"16/02/2022 12:28:09",5786212,"PVT-1",12,0,7000,"27",365,"LCL",1,1
"16/02/2022 12:28:18",5786212,"PVT-1",13,0,7000,"27",342,"LCL",1,1
"16/02/2022 12:28:25",5786212,"PVT-1",14,0,6000,"27",404,"LCL",1,1
"16/02/2022 12:28:31",5786212,"PVT-1",15,1,5000,"27",4363,"LCL",1,1
"16/02/2022 12:29:09",5786212,"PVT-1",16,0,7000,"27",372,"LCL",1,1
"16/02/2022 12:29:12",5786212,"PVT-1",17,0,2000,"27",347,"LCL",1,1
"16/02/2022 12:29:14",5786212,"PVT-1",18,1,10000,"27",146,"LCL",1,1
"16/02/2022 12:29:17",5786212,"PVT-1",19,0,1000,"27",460,"LCL",1,1
"16/02/2022 12:29:26",5786212,"PVT-1",20,0,8000,"27",373,"LCL",1,1
"16/02/2022 12:29:31",5786212,"PVT-1",21,0,2000,"27",948,"LCL",1,1
"16/02/2022 12:29:37",5786212,"PVT-1",22,0,5000,"27",393,"LCL",1,1
"16/02/2022 12:29:44",5786212,"PVT-1",23,1,10000,"27",5951,"LCL",1,1
"16/02/2022 12:29:53",5786212,"PVT-1",24,0,2000,"27",360,"LCL",1,1
"16/02/2022 12:30:03",5786212,"PVT-1",25,0,8000,"27",378,"LCL",1,1
"16/02/2022 12:30:12",5786212,"PVT-1",26,1,9000,"27",7480,"LCL",1,1
"16/02/2022 12:30:20",5786212,"PVT-1",27,0,6000,"27",393,"LCL",1,1
"16/02/2022 12:30:27",5786212,"PVT-1",28,0,6000,"27",334,"LCL",1,1
"16/02/2022 12:30:32",5786212,"PVT-1",29,1,9000,"27",3253,"LCL",1,1
"16/02/2022 12:30:39",5786212,"PVT-1",30,0,4000,"27",400,"LCL",1,1
"16/02/2022 12:30:42",5786212,"PVT-1",31,0,1000,"27",594,"LCL",1,1
"16/02/2022 12:30:45",5786212,"PVT-1",32,1,8000,"27",2265,"LCL",1,1
"16/02/2022 12:30:50",5786212,"PVT-1",33,0,3000,"27",375,"LCL",1,1
"16/02/2022 12:31:01",5786212,"PVT-1",34,0,9000,"27",326,"LCL",1,1
"16/02/2022 12:31:12",5786212,"PVT-1",35,0,10000,"27",416,"LCL",1,1
"16/02/2022 12:31:17",5786212,"PVT-1",36,0,3000,"27",372,"LCL",1,1
"16/02/2022 12:31:22",5786212,"PVT-1",37,0,4000,"27",379,"LCL",1,1
"16/02/2022 12:31:26",5786212,"PVT-1",38,0,2000,"27",398,"LCL",1,1
"16/02/2022 12:31:34",5786212,"PVT-1",39,0,6000,"27",386,"LCL",1,1
"16/02/2022 12:31:44",5786212,"PVT-1",40,0,9000,"27",410,"LCL",1,1
"16/02/2022 10:24:59",5785034,"PVT-1",1,1,7000,"28",323,"LCL",1,1
"16/02/2022 10:25:12",5785034,"PVT-1",2,0,9000,"28",452.1,"LCL",1,1
"16/02/2022 10:25:19",5785034,"PVT-1",3,0,5000,"28",369.5,"LCL",1,1
"16/02/2022 10:25:28",5785034,"PVT-1",4,0,8000,"28",335.5,"LCL",1,1
"16/02/2022 10:25:33",5785034,"PVT-1",5,0,3000,"28",386.9,"LCL",1,1
"16/02/2022 10:25:43",5785034,"PVT-1",6,0,8000,"28",366.6,"LCL",1,1
"16/02/2022 10:25:49",5785034,"PVT-1",7,0,5000,"28",336.7,"LCL",1,1
"16/02/2022 10:25:55",5785034,"PVT-1",8,0,4000,"28",350.4,"LCL",1,1
"16/02/2022 10:25:57",5785034,"PVT-1",9,0,1000,"28",355.2,"LCL",1,1
"16/02/2022 10:26:03",5785034,"PVT-1",10,1,9000,"28",4528.8,"LCL",1,1
"16/02/2022 10:26:11",5785034,"PVT-1",11,0,5000,"28",345.5,"LCL",1,1
"16/02/2022 10:26:14",5785034,"PVT-1",12,0,2000,"28",379.2,"LCL",1,1
"16/02/2022 10:26:24",5785034,"PVT-1",13,0,8000,"28",330.7,"LCL",1,1
"16/02/2022 10:26:35",5785034,"PVT-1",14,0,10000,"28",328,"LCL",1,1
"16/02/2022 10:26:47",5785034,"PVT-1",15,0,10000,"28",333.1,"LCL",1,1
"16/02/2022 10:26:56",5785034,"PVT-1",16,0,7000,"28",414.3,"LCL",1,1
"16/02/2022 10:27:02",5785034,"PVT-1",17,0,5000,"28",367.8,"LCL",1,1
"16/02/2022 10:27:05",5785034,"PVT-1",18,0,1000,"28",329.7,"LCL",1,1
"16/02/2022 10:27:12",5785034,"PVT-1",19,0,6000,"28",365.2,"LCL",1,1
"16/02/2022 10:27:18",5785034,"PVT-1",20,0,4000,"28",329,"LCL",1,1
"16/02/2022 10:27:21",5785034,"PVT-1",21,1,2000,"28",1409,"LCL",1,1
"16/02/2022 10:27:28",5785034,"PVT-1",22,1,8000,"28",5390.5,"LCL",1,1
"16/02/2022 10:27:32",5785034,"PVT-1",23,0,2000,"28",398.4,"LCL",1,1
"16/02/2022 10:27:39",5785034,"PVT-1",24,0,6000,"28",331.9,"LCL",1,1
"16/02/2022 10:27:48",5785034,"PVT-1",25,0,7000,"28",339.4,"LCL",1,1
"16/02/2022 10:27:54",5785034,"PVT-1",26,0,4000,"28",379,"LCL",1,1
"16/02/2022 10:27:56",5785034,"PVT-1",27,0,1000,"28",447.9,"LCL",1,1
"16/02/2022 10:28:01",5785034,"PVT-1",28,0,3000,"28",364.3,"LCL",1,1
"16/02/2022 10:28:04",5785034,"PVT-1",29,0,1000,"28",351.2,"LCL",1,1
"16/02/2022 10:28:15",5785034,"PVT-1",30,0,10000,"28",353.4,"LCL",1,1
"16/02/2022 10:28:21",5785034,"PVT-1",31,1,6000,"28",4177.1,"LCL",1,1
"16/02/2022 10:28:31",5785034,"PVT-1",32,0,9000,"28",383.9,"LCL",1,1
"16/02/2022 10:28:36",5785034,"PVT-1",33,0,3000,"28",348.8,"LCL",1,1
"16/02/2022 10:28:42",5785034,"PVT-1",34,0,4000,"28",382.1,"LCL",1,1
"16/02/2022 10:28:45",5785034,"PVT-1",35,0,2000,"28",353,"LCL",1,1
"16/02/2022 10:28:56",5785034,"PVT-1",36,0,9000,"28",336,"LCL",1,1
"16/02/2022 10:29:03",5785034,"PVT-1",37,0,6000,"28",79.3,"LCL",1,1
"16/02/2022 10:29:08",5785034,"PVT-1",38,0,3000,"28",349.9,"LCL",1,1
"16/02/2022 10:29:19",5785034,"PVT-1",39,0,10000,"28",363.6,"LCL",1,1
"16/02/2022 10:29:25",5785034,"PVT-1",40,1,7000,"28",4640,"LCL",1,1
"15/02/2022 12:31:50",5774929,"PVT-1",1,1,8000,"29",659,"LCL",1,1
"15/02/2022 12:32:01",5774929,"PVT-1",2,0,8000,"29",343,"LCL",1,1
"15/02/2022 12:32:03",5774929,"PVT-1",3,0,1000,"29",577,"LCL",1,1
"15/02/2022 12:32:14",5774929,"PVT-1",4,0,9000,"29",400,"LCL",1,1
"15/02/2022 12:32:18",5774929,"PVT-1",5,0,2000,"29",404,"LCL",1,1
"15/02/2022 12:32:20",5774929,"PVT-1",6,0,1000,"29",389,"LCL",1,1
"15/02/2022 12:32:26",5774929,"PVT-1",7,0,4000,"29",305,"LCL",1,1
"15/02/2022 12:32:36",5774929,"PVT-1",8,0,8000,"29",415,"LCL",1,1
"15/02/2022 12:32:46",5774929,"PVT-1",9,0,9000,"29",343,"LCL",1,1
"15/02/2022 12:32:57",5774929,"PVT-1",10,0,9000,"29",487,"LCL",1,1
"15/02/2022 12:33:02",5774929,"PVT-1",11,0,3000,"29",501,"LCL",1,1
"15/02/2022 12:33:07",5774929,"PVT-1",12,0,4000,"29",313,"LCL",1,1
"15/02/2022 12:33:14",5774929,"PVT-1",13,0,5000,"29",336,"LCL",1,1
"15/02/2022 12:33:18",5774929,"PVT-1",14,0,2000,"29",351,"LCL",1,1
"15/02/2022 12:33:27",5774929,"PVT-1",15,0,8000,"29",321,"LCL",1,1
"15/02/2022 12:33:30",5774929,"PVT-1",16,0,1000,"29",565,"LCL",1,1
"15/02/2022 12:33:35",5774929,"PVT-1",17,0,3000,"29",340,"LCL",1,1
"15/02/2022 12:33:39",5774929,"PVT-1",18,0,3000,"29",303,"LCL",1,1
"15/02/2022 12:33:45",5774929,"PVT-1",19,0,4000,"29",368,"LCL",1,1
"15/02/2022 12:33:51",5774929,"PVT-1",20,0,5000,"29",262,"LCL",1,1
"15/02/2022 12:33:55",5774929,"PVT-1",21,0,2000,"29",406,"LCL",1,1
"15/02/2022 12:33:58",5774929,"PVT-1",22,0,2000,"29",302,"LCL",1,1
"15/02/2022 12:34:10",5774929,"PVT-1",23,0,10000,"29",325,"LCL",1,1
"15/02/2022 12:34:19",5774929,"PVT-1",24,0,7000,"29",362,"LCL",1,1
"15/02/2022 12:34:25",5774929,"PVT-1",25,0,5000,"29",379,"LCL",1,1
"15/02/2022 12:34:27",5774929,"PVT-1",26,1,6000,"29",302,"LCL",1,1
"15/02/2022 12:34:41",5774929,"PVT-1",27,0,10000,"29",317,"LCL",1,1
"15/02/2022 12:34:49",5774929,"PVT-1",28,0,6000,"29",549,"LCL",1,1
"15/02/2022 12:34:54",5774929,"PVT-1",29,0,4000,"29",423,"LCL",1,1
"15/02/2022 12:34:57",5774929,"PVT-1",30,0,1000,"29",568,"LCL",1,1
"15/02/2022 12:35:08",5774929,"PVT-1",31,0,9000,"29",352,"LCL",1,1
"15/02/2022 12:35:15",5774929,"PVT-1",32,0,6000,"29",294,"LCL",1,1
"15/02/2022 12:35:24",5774929,"PVT-1",33,0,7000,"29",330,"LCL",1,1
"15/02/2022 12:35:36",5774929,"PVT-1",34,0,10000,"29",352,"LCL",1,1
"15/02/2022 12:35:44",5774929,"PVT-1",35,0,7000,"29",403,"LCL",1,1
"15/02/2022 12:35:51",5774929,"PVT-1",36,1,6000,"29",5543,"LCL",1,1
"15/02/2022 12:36:05",5774929,"PVT-1",37,0,10000,"29",322,"LCL",1,1
"15/02/2022 12:36:11",5774929,"PVT-1",38,0,5000,"29",351,"LCL",1,1
"15/02/2022 12:36:16",5774929,"PVT-1",39,0,3000,"29",354,"LCL",1,1
"15/02/2022 12:36:24",5774929,"PVT-1",40,0,7000,"29",290,"LCL",1,1
"15/02/2022 08:58:29",5773932,"PVT-1",1,0,7000,"30",363,"LCL",1,1
"15/02/2022 08:58:33",5773932,"PVT-1",2,0,3000,"30",309.4,"LCL",1,1
"15/02/2022 08:58:43",5773932,"PVT-1",3,0,8000,"30",340.4,"LCL",1,1
"15/02/2022 08:58:49",5773932,"PVT-1",4,0,5000,"30",296.2,"LCL",1,1
"15/02/2022 08:58:53",5773932,"PVT-1",5,0,2000,"30",362.5,"LCL",1,1
"15/02/2022 08:59:02",5773932,"PVT-1",6,0,8000,"30",326.4,"LCL",1,1
"15/02/2022 08:59:10",5773932,"PVT-1",7,1,9000,"30",6219.7,"LCL",1,1
"15/02/2022 08:59:15",5773932,"PVT-1",8,0,2000,"30",371.4,"LCL",1,1
"15/02/2022 08:59:23",5773932,"PVT-1",9,0,6000,"30",297.9,"LCL",1,1
"15/02/2022 08:59:32",5773932,"PVT-1",10,0,8000,"30",306.2,"LCL",1,1
"15/02/2022 08:59:42",5773932,"PVT-1",11,0,8000,"30",309.5,"LCL",1,1
"15/02/2022 08:59:47",5773932,"PVT-1",12,0,4000,"30",328.7,"LCL",1,1
"15/02/2022 08:59:56",5773932,"PVT-1",13,0,7000,"30",340.1,"LCL",1,1
"15/02/2022 08:59:59",5773932,"PVT-1",14,0,2000,"30",374.6,"LCL",1,1
"15/02/2022 09:00:08",5773932,"PVT-1",15,0,7000,"30",293.1,"LCL",1,1
"15/02/2022 09:00:11",5773932,"PVT-1",16,1,10000,"30",1376.5,"LCL",1,1
"15/02/2022 09:00:23",5773932,"PVT-1",17,0,10000,"30",300.4,"LCL",1,1
"15/02/2022 09:00:31",5773932,"PVT-1",18,0,6000,"30",411.2,"LCL",1,1
"15/02/2022 09:00:37",5773932,"PVT-1",19,0,5000,"30",310.6,"LCL",1,1
"15/02/2022 09:00:40",5773932,"PVT-1",20,0,1000,"30",341.1,"LCL",1,1
"15/02/2022 09:00:42",5773932,"PVT-1",21,0,1000,"30",289.6,"LCL",1,1
"15/02/2022 09:00:47",5773932,"PVT-1",22,0,3000,"30",294.3,"LCL",1,1
"15/02/2022 09:00:58",5773932,"PVT-1",23,0,10000,"30",366.3,"LCL",1,1
"15/02/2022 09:01:06",5773932,"PVT-1",24,0,6000,"30",301.5,"LCL",1,1
"15/02/2022 09:01:15",5773932,"PVT-1",25,0,7000,"30",296.7,"LCL",1,1
"15/02/2022 09:01:26",5773932,"PVT-1",26,0,10000,"30",337.9,"LCL",1,1
"15/02/2022 09:01:33",5773932,"PVT-1",27,0,5000,"30",378.3,"LCL",1,1
"15/02/2022 09:01:43",5773932,"PVT-1",28,0,9000,"30",363.5,"LCL",1,1
"15/02/2022 09:01:51",5773932,"PVT-1",29,0,6000,"30",342.7,"LCL",1,1
"15/02/2022 09:01:56",5773932,"PVT-1",30,0,3000,"30",384.3,"LCL",1,1
"15/02/2022 09:01:59",5773932,"PVT-1",31,0,2000,"30",407.9,"LCL",1,1
"15/02/2022 09:02:02",5773932,"PVT-1",32,0,1000,"30",359.3,"LCL",1,1
"15/02/2022 09:02:04",5773932,"PVT-1",33,1,9000,"30",588.6,"LCL",1,1
"15/02/2022 09:02:07",5773932,"PVT-1",34,0,1000,"30",331.2,"LCL",1,1
"15/02/2022 09:02:17",5773932,"PVT-1",35,0,9000,"30",413.8,"LCL",1,1
"15/02/2022 09:02:22",5773932,"PVT-1",36,0,3000,"30",430.1,"LCL",1,1
"15/02/2022 09:02:29",5773932,"PVT-1",37,0,5000,"30",354.2,"LCL",1,1
"15/02/2022 09:02:34",5773932,"PVT-1",38,0,4000,"30",345,"LCL",1,1
"15/02/2022 09:02:40",5773932,"PVT-1",39,0,4000,"30",397.5,"LCL",1,1
"15/02/2022 09:02:45",5773932,"PVT-1",40,0,4000,"30",308.9,"LCL",1,1
"14/02/2022 21:07:31",5770025,"PVT-1",1,0,3000,"31",313,"LCL",1,1
"14/02/2022 21:07:34",5770025,"PVT-1",2,0,1000,"31",367.6,"LCL",1,1
"14/02/2022 21:07:37",5770025,"PVT-1",3,1,10000,"31",2251.9,"LCL",1,1
"14/02/2022 21:07:44",5770025,"PVT-1",4,0,4000,"31",302.6,"LCL",1,1
"14/02/2022 21:07:50",5770025,"PVT-1",5,0,4000,"31",288.4,"LCL",1,1
"14/02/2022 21:08:01",5770025,"PVT-1",6,0,10000,"31",344.2,"LCL",1,1
"14/02/2022 21:08:10",5770025,"PVT-1",7,0,7000,"31",380.4,"LCL",1,1
"14/02/2022 21:08:18",5770025,"PVT-1",8,0,7000,"31",315.9,"LCL",1,1
"14/02/2022 21:08:25",5770025,"PVT-1",9,0,5000,"31",309.5,"LCL",1,1
"14/02/2022 21:08:30",5770025,"PVT-1",10,0,3000,"31",312.8,"LCL",1,1
"14/02/2022 21:08:35",5770025,"PVT-1",11,0,4000,"31",302.5,"LCL",1,1
"14/02/2022 21:08:47",5770025,"PVT-1",12,0,10000,"31",324,"LCL",1,1
"14/02/2022 21:08:54",5770025,"PVT-1",13,1,9000,"31",6024.5,"LCL",1,1
"14/02/2022 21:08:58",5770025,"PVT-1",14,0,1000,"31",375.2,"LCL",1,1
"14/02/2022 21:09:01",5770025,"PVT-1",15,0,1000,"31",512.8,"LCL",1,1
"14/02/2022 21:09:11",5770025,"PVT-1",16,0,9000,"31",389.7,"LCL",1,1
"14/02/2022 21:09:19",5770025,"PVT-1",17,0,6000,"31",317.9,"LCL",1,1
"14/02/2022 21:09:22",5770025,"PVT-1",18,0,2000,"31",355.8,"LCL",1,1
"14/02/2022 21:09:32",5770025,"PVT-1",19,0,8000,"31",376.1,"LCL",1,1
"14/02/2022 21:09:41",5770025,"PVT-1",20,0,7000,"31",327.7,"LCL",1,1
"14/02/2022 21:09:48",5770025,"PVT-1",21,0,6000,"31",338,"LCL",1,1
"14/02/2022 21:09:58",5770025,"PVT-1",22,0,8000,"31",361.5,"LCL",1,1
"14/02/2022 21:10:03",5770025,"PVT-1",23,0,3000,"31",432.5,"LCL",1,1
"14/02/2022 21:10:09",5770025,"PVT-1",24,0,5000,"31",329,"LCL",1,1
"14/02/2022 21:10:19",5770025,"PVT-1",25,0,8000,"31",373.5,"LCL",1,1
"14/02/2022 21:10:25",5770025,"PVT-1",26,0,5000,"31",362,"LCL",1,1
"14/02/2022 21:10:34",5770025,"PVT-1",27,0,7000,"31",345.5,"LCL",1,1
"14/02/2022 21:10:44",5770025,"PVT-1",28,0,8000,"31",334.2,"LCL",1,1
"14/02/2022 21:10:51",5770025,"PVT-1",29,1,9000,"31",5989.2,"LCL",1,1
"14/02/2022 21:11:00",5770025,"PVT-1",30,0,5000,"31",323.6,"LCL",1,1
"14/02/2022 21:11:04",5770025,"PVT-1",31,0,3000,"31",417.5,"LCL",1,1
"14/02/2022 21:11:08",5770025,"PVT-1",32,0,2000,"31",360.8,"LCL",1,1
"14/02/2022 21:11:12",5770025,"PVT-1",33,0,2000,"31",349.8,"LCL",1,1
"14/02/2022 21:11:19",5770025,"PVT-1",34,0,6000,"31",361.6,"LCL",1,1
"14/02/2022 21:11:23",5770025,"PVT-1",35,0,2000,"31",323.9,"LCL",1,1
"14/02/2022 21:11:30",5770025,"PVT-1",36,0,6000,"31",319,"LCL",1,1
"14/02/2022 21:11:36",5770025,"PVT-1",37,0,4000,"31",359,"LCL",1,1
"14/02/2022 21:11:43",5770025,"PVT-1",38,1,9000,"31",5814.2,"LCL",1,1
"14/02/2022 21:11:47",5770025,"PVT-1",39,0,1000,"31",1047.7,"LCL",1,1
"14/02/2022 21:11:58",5770025,"PVT-1",40,0,10000,"31",315.2,"LCL",1,1
"14/02/2022 20:18:45",5769634,"PVT-1",1,1,5000,"32",3897.7,"LCL",1,1
"14/02/2022 20:18:58",5769634,"PVT-1",2,0,10000,"32",402.5,"LCL",1,1
"14/02/2022 20:19:01",5769634,"PVT-1",3,0,1000,"32",657.5,"LCL",1,1
"14/02/2022 20:19:06",5769634,"PVT-1",4,0,3000,"32",314.8,"LCL",1,1
"14/02/2022 20:19:13",5769634,"PVT-1",5,0,6000,"32",445.3,"LCL",1,1
"14/02/2022 20:19:16",5769634,"PVT-1",6,0,1000,"32",437.9,"LCL",1,1
"14/02/2022 20:19:21",5769634,"PVT-1",7,0,3000,"32",989.6,"LCL",1,1
"14/02/2022 20:19:30",5769634,"PVT-1",8,0,7000,"32",368.8,"LCL",1,1
"14/02/2022 20:19:33",5769634,"PVT-1",9,0,1000,"32",440.3,"LCL",1,1
"14/02/2022 20:19:37",5769634,"PVT-1",10,0,3000,"32",322.8,"LCL",1,1
"14/02/2022 20:19:48",5769634,"PVT-1",11,0,9000,"32",445.1,"LCL",1,1
"14/02/2022 20:19:54",5769634,"PVT-1",12,0,4000,"32",375,"LCL",1,1
"14/02/2022 20:20:03",5769634,"PVT-1",13,0,8000,"32",415.3,"LCL",1,1
"14/02/2022 20:20:13",5769634,"PVT-1",14,0,8000,"32",418.8,"LCL",1,1
"14/02/2022 20:20:21",5769634,"PVT-1",15,0,6000,"32",354.7,"LCL",1,1
"14/02/2022 20:20:29",5769634,"PVT-1",16,0,7000,"32",394.6,"LCL",1,1
"14/02/2022 20:20:34",5769634,"PVT-1",17,1,6000,"32",4015,"LCL",1,1
"14/02/2022 20:20:39",5769634,"PVT-1",18,0,2000,"32",340.8,"LCL",1,1
"14/02/2022 20:20:51",5769634,"PVT-1",19,0,10000,"32",331.4,"LCL",1,1
"14/02/2022 20:20:55",5769634,"PVT-1",20,0,2000,"32",376.2,"LCL",1,1
"14/02/2022 20:20:58",5769634,"PVT-1",21,0,2000,"32",413.7,"LCL",1,1
"14/02/2022 20:21:05",5769634,"PVT-1",22,0,5000,"32",379.6,"LCL",1,1
"14/02/2022 20:21:17",5769634,"PVT-1",23,0,10000,"32",336,"LCL",1,1
"14/02/2022 20:21:20",5769634,"PVT-1",24,0,2000,"32",415.3,"LCL",1,1
"14/02/2022 20:21:26",5769634,"PVT-1",25,0,4000,"32",535.8,"LCL",1,1
"14/02/2022 20:21:37",5769634,"PVT-1",26,0,9000,"32",509,"LCL",1,1
"14/02/2022 20:21:45",5769634,"PVT-1",27,1,8000,"32",7096.5,"LCL",1,1
"14/02/2022 20:21:50",5769634,"PVT-1",28,0,3000,"32",355.5,"LCL",1,1
"14/02/2022 20:21:53",5769634,"PVT-1",29,0,1000,"32",507.1,"LCL",1,1
"14/02/2022 20:22:04",5769634,"PVT-1",30,0,10000,"32",374.9,"LCL",1,1
"14/02/2022 20:22:15",5769634,"PVT-1",31,0,9000,"32",406.6,"LCL",1,1
"14/02/2022 20:22:25",5769634,"PVT-1",32,0,9000,"32",322.9,"LCL",1,1
"14/02/2022 20:22:34",5769634,"PVT-1",33,0,7000,"32",414.4,"LCL",1,1
"14/02/2022 20:22:44",5769634,"PVT-1",34,0,8000,"32",371,"LCL",1,1
"14/02/2022 20:22:52",5769634,"PVT-1",35,0,7000,"32",388.7,"LCL",1,1
"14/02/2022 20:22:59",5769634,"PVT-1",36,0,5000,"32",348.9,"LCL",1,1
"14/02/2022 20:23:07",5769634,"PVT-1",37,0,6000,"32",432.2,"LCL",1,1
"14/02/2022 20:23:12",5769634,"PVT-1",38,0,4000,"32",386.9,"LCL",1,1
"14/02/2022 20:23:18",5769634,"PVT-1",39,0,4000,"32",330.9,"LCL",1,1
"14/02/2022 20:23:25",5769634,"PVT-1",40,0,5000,"32",344.9,"LCL",1,1
"14/02/2022 20:07:12",5769574,"PVT-1",1,0,4000,"33",640.5,"LCL",1,1
"14/02/2022 20:07:20",5769574,"PVT-1",2,0,6000,"33",369.1,"LCL",1,1
"14/02/2022 20:07:30",5769574,"PVT-1",3,0,9000,"33",341.4,"LCL",1,1
"14/02/2022 20:07:39",5769574,"PVT-1",4,0,7000,"33",315.3,"LCL",1,1
"14/02/2022 20:07:42",5769574,"PVT-1",5,0,1000,"33",510,"LCL",1,1
"14/02/2022 20:07:48",5769574,"PVT-1",6,0,5000,"33",324.9,"LCL",1,1
"14/02/2022 20:07:56",5769574,"PVT-1",7,0,6000,"33",328.3,"LCL",1,1
"14/02/2022 20:08:07",5769574,"PVT-1",8,0,10000,"33",366.1,"LCL",1,1
"14/02/2022 20:08:10",5769574,"PVT-1",9,0,1000,"33",573.9,"LCL",1,1
"14/02/2022 20:08:21",5769574,"PVT-1",10,0,9000,"33",353,"LCL",1,1
"14/02/2022 20:08:31",5769574,"PVT-1",11,0,8000,"33",459,"LCL",1,1
"14/02/2022 20:08:41",5769574,"PVT-1",12,0,9000,"33",368.2,"LCL",1,1
"14/02/2022 20:08:49",5769574,"PVT-1",13,0,6000,"33",342.2,"LCL",1,1
"14/02/2022 20:08:58",5769574,"PVT-1",14,0,8000,"33",400.7,"LCL",1,1
"14/02/2022 20:09:02",5769574,"PVT-1",15,0,2000,"33",489.8,"LCL",1,1
"14/02/2022 20:09:11",5769574,"PVT-1",16,0,7000,"33",333.5,"LCL",1,1
"14/02/2022 20:09:19",5769574,"PVT-1",17,0,7000,"33",349.8,"LCL",1,1
"14/02/2022 20:09:26",5769574,"PVT-1",18,0,5000,"33",350.2,"LCL",1,1
"14/02/2022 20:09:30",5769574,"PVT-1",19,0,2000,"33",350.3,"LCL",1,1
"14/02/2022 20:09:39",5769574,"PVT-1",20,0,8000,"33",301.6,"LCL",1,1
"14/02/2022 20:09:44",5769574,"PVT-1",21,0,3000,"33",330.4,"LCL",1,1
"14/02/2022 20:09:50",5769574,"PVT-1",22,0,5000,"33",334.4,"LCL",1,1
"14/02/2022 20:10:02",5769574,"PVT-1",23,0,10000,"33",394,"LCL",1,1
"14/02/2022 20:10:13",5769574,"PVT-1",24,0,10000,"33",332.5,"LCL",1,1
"14/02/2022 20:10:23",5769574,"PVT-1",25,0,8000,"33",364.4,"LCL",1,1
"14/02/2022 20:10:32",5769574,"PVT-1",26,0,7000,"33",380.4,"LCL",1,1
"14/02/2022 20:10:42",5769574,"PVT-1",27,0,9000,"33",372.8,"LCL",1,1
"14/02/2022 20:10:46",5769574,"PVT-1",28,0,2000,"33",378.2,"LCL",1,1
"14/02/2022 20:10:53",5769574,"PVT-1",29,0,5000,"33",315.3,"LCL",1,1
"14/02/2022 20:10:57",5769574,"PVT-1",30,0,3000,"33",358.6,"LCL",1,1
"14/02/2022 20:11:03",5769574,"PVT-1",31,0,4000,"33",326.9,"LCL",1,1
"14/02/2022 20:11:06",5769574,"PVT-1",32,0,2000,"33",550.6,"LCL",1,1
"14/02/2022 20:11:18",5769574,"PVT-1",33,0,10000,"33",340.8,"LCL",1,1
"14/02/2022 20:11:24",5769574,"PVT-1",34,0,4000,"33",371.3,"LCL",1,1
"14/02/2022 20:11:28",5769574,"PVT-1",35,0,3000,"33",382.3,"LCL",1,1
"14/02/2022 20:11:31",5769574,"PVT-1",36,0,1000,"33",369.6,"LCL",1,1
"14/02/2022 20:11:37",5769574,"PVT-1",37,0,4000,"33",322.3,"LCL",1,1
"14/02/2022 20:11:44",5769574,"PVT-1",38,0,6000,"33",320.5,"LCL",1,1
"14/02/2022 20:11:47",5769574,"PVT-1",39,0,1000,"33",446.5,"LCL",1,1
"14/02/2022 20:11:51",5769574,"PVT-1",40,0,3000,"33",351.7,"LCL",1,1
"14/02/2022 19:37:06",5769389,"PVT-1",1,0,5000,"34",289.8,"LCL",1,1
"14/02/2022 19:37:09",5769389,"PVT-1",2,0,1000,"34",757.8,"LCL",1,1
"14/02/2022 19:37:21",5769389,"PVT-1",3,0,10000,"34",310.7,"LCL",1,1
"14/02/2022 19:37:29",5769389,"PVT-1",4,0,7000,"34",317.8,"LCL",1,1
"14/02/2022 19:37:41",5769389,"PVT-1",5,0,10000,"34",314.4,"LCL",1,1
"14/02/2022 19:37:43",5769389,"PVT-1",6,0,1000,"34",329.7,"LCL",1,1
"14/02/2022 19:37:51",5769389,"PVT-1",7,0,6000,"34",295.4,"LCL",1,1
"14/02/2022 19:37:55",5769389,"PVT-1",8,0,3000,"34",267.5,"LCL",1,1
"14/02/2022 19:37:58",5769389,"PVT-1",9,0,1000,"34",322.7,"LCL",1,1
"14/02/2022 19:38:03",5769389,"PVT-1",10,0,4000,"34",274.5,"LCL",1,1
"14/02/2022 19:38:14",5769389,"PVT-1",11,0,9000,"34",313.1,"LCL",1,1
"14/02/2022 19:38:18",5769389,"PVT-1",12,0,2000,"34",325.8,"LCL",1,1
"14/02/2022 19:38:29",5769389,"PVT-1",13,0,10000,"34",322.3,"LCL",1,1
"14/02/2022 19:38:36",5769389,"PVT-1",14,0,5000,"34",300.8,"LCL",1,1
"14/02/2022 19:38:44",5769389,"PVT-1",15,0,7000,"34",321.4,"LCL",1,1
"14/02/2022 19:38:55",5769389,"PVT-1",16,0,9000,"34",318.2,"LCL",1,1
"14/02/2022 19:38:59",5769389,"PVT-1",17,0,3000,"34",465.4,"LCL",1,1
"14/02/2022 19:39:03",5769389,"PVT-1",18,0,2000,"34",324,"LCL",1,1
"14/02/2022 19:39:08",5769389,"PVT-1",19,0,3000,"34",295.3,"LCL",1,1
"14/02/2022 19:39:14",5769389,"PVT-1",20,0,5000,"34",321.5,"LCL",1,1
"14/02/2022 19:39:23",5769389,"PVT-1",21,0,7000,"34",297.8,"LCL",1,1
"14/02/2022 19:39:31",5769389,"PVT-1",22,0,7000,"34",281.4,"LCL",1,1
"14/02/2022 19:39:41",5769389,"PVT-1",23,0,8000,"34",290.1,"LCL",1,1
"14/02/2022 19:39:52",5769389,"PVT-1",24,0,10000,"34",332.5,"LCL",1,1
"14/02/2022 19:40:00",5769389,"PVT-1",25,0,6000,"34",299.3,"LCL",1,1
"14/02/2022 19:40:04",5769389,"PVT-1",26,0,2000,"34",396.9,"LCL",1,1
"14/02/2022 19:40:09",5769389,"PVT-1",27,0,4000,"34",371.4,"LCL",1,1
"14/02/2022 19:40:12",5769389,"PVT-1",28,0,1000,"34",362.1,"LCL",1,1
"14/02/2022 19:40:20",5769389,"PVT-1",29,0,6000,"34",505.6,"LCL",1,1
"14/02/2022 19:40:25",5769389,"PVT-1",30,0,4000,"34",403,"LCL",1,1
"14/02/2022 19:40:36",5769389,"PVT-1",31,0,9000,"34",300.6,"LCL",1,1
"14/02/2022 19:40:43",5769389,"PVT-1",32,0,6000,"34",344,"LCL",1,1
"14/02/2022 19:40:53",5769389,"PVT-1",33,0,8000,"34",318.8,"LCL",1,1
"14/02/2022 19:40:57",5769389,"PVT-1",34,0,2000,"34",376.6,"LCL",1,1
"14/02/2022 19:41:03",5769389,"PVT-1",35,0,5000,"34",378.8,"LCL",1,1
"14/02/2022 19:41:14",5769389,"PVT-1",36,0,9000,"34",375.6,"LCL",1,1
"14/02/2022 19:41:23",5769389,"PVT-1",37,0,8000,"34",323.7,"LCL",1,1
"14/02/2022 19:41:33",5769389,"PVT-1",38,0,8000,"34",295.3,"LCL",1,1
"14/02/2022 19:41:37",5769389,"PVT-1",39,0,3000,"34",328,"LCL",1,1
"14/02/2022 19:41:43",5769389,"PVT-1",40,0,4000,"34",346.9,"LCL",1,1
"14/02/2022 19:06:30",5769167,"PVT-1",1,0,1000,"35",643.9,"LCL",1,1
"14/02/2022 19:06:32",5769167,"PVT-1",2,1,4000,"35",621.2,"LCL",1,1
"14/02/2022 19:06:37",5769167,"PVT-1",3,0,2000,"35",293.4,"LCL",1,1
"14/02/2022 19:06:44",5769167,"PVT-1",4,0,5000,"35",318,"LCL",1,1
"14/02/2022 19:06:52",5769167,"PVT-1",5,0,7000,"35",276,"LCL",1,1
"14/02/2022 19:07:02",5769167,"PVT-1",6,0,8000,"35",326,"LCL",1,1
"14/02/2022 19:07:13",5769167,"PVT-1",7,0,9000,"35",297.1,"LCL",1,1
"14/02/2022 19:07:17",5769167,"PVT-1",8,0,3000,"35",381.6,"LCL",1,1
"14/02/2022 19:07:22",5769167,"PVT-1",9,0,3000,"35",306.9,"LCL",1,1
"14/02/2022 19:07:30",5769167,"PVT-1",10,0,7000,"35",296,"LCL",1,1
"14/02/2022 19:07:40",5769167,"PVT-1",11,0,8000,"35",262.5,"LCL",1,1
"14/02/2022 19:07:46",5769167,"PVT-1",12,0,5000,"35",380.4,"LCL",1,1
"14/02/2022 19:07:58",5769167,"PVT-1",13,0,10000,"35",290,"LCL",1,1
"14/02/2022 19:08:06",5769167,"PVT-1",14,0,6000,"35",299.2,"LCL",1,1
"14/02/2022 19:08:11",5769167,"PVT-1",15,0,4000,"35",470.4,"LCL",1,1
"14/02/2022 19:08:23",5769167,"PVT-1",16,0,10000,"35",277.3,"LCL",1,1
"14/02/2022 19:08:33",5769167,"PVT-1",17,0,9000,"35",365.1,"LCL",1,1
"14/02/2022 19:08:36",5769167,"PVT-1",18,0,1000,"35",513.5,"LCL",1,1
"14/02/2022 19:08:48",5769167,"PVT-1",19,0,10000,"35",316.9,"LCL",1,1
"14/02/2022 19:08:56",5769167,"PVT-1",20,0,7000,"35",311.2,"LCL",1,1
"14/02/2022 19:09:02",5769167,"PVT-1",21,0,4000,"35",309.5,"LCL",1,1
"14/02/2022 19:09:12",5769167,"PVT-1",22,0,9000,"35",295.9,"LCL",1,1
"14/02/2022 19:09:24",5769167,"PVT-1",23,0,10000,"35",314.1,"LCL",1,1
"14/02/2022 19:09:31",5769167,"PVT-1",24,0,5000,"35",368.7,"LCL",1,1
"14/02/2022 19:09:34",5769167,"PVT-1",25,0,2000,"35",375.7,"LCL",1,1
"14/02/2022 19:09:44",5769167,"PVT-1",26,0,8000,"35",371.2,"LCL",1,1
"14/02/2022 19:09:51",5769167,"PVT-1",27,0,5000,"35",403,"LCL",1,1
"14/02/2022 19:09:56",5769167,"PVT-1",28,0,4000,"35",422,"LCL",1,1
"14/02/2022 19:10:04",5769167,"PVT-1",29,0,6000,"35",291.5,"LCL",1,1
"14/02/2022 19:10:11",5769167,"PVT-1",30,0,6000,"35",290.7,"LCL",1,1
"14/02/2022 19:10:15",5769167,"PVT-1",31,0,2000,"35",314.4,"LCL",1,1
"14/02/2022 19:10:18",5769167,"PVT-1",32,0,2000,"35",309.2,"LCL",1,1
"14/02/2022 19:10:27",5769167,"PVT-1",33,0,7000,"35",306,"LCL",1,1
"14/02/2022 19:10:35",5769167,"PVT-1",34,0,6000,"35",300.7,"LCL",1,1
"14/02/2022 19:10:37",5769167,"PVT-1",35,0,1000,"35",301.8,"LCL",1,1
"14/02/2022 19:10:40",5769167,"PVT-1",36,0,1000,"35",267.2,"LCL",1,1
"14/02/2022 19:10:49",5769167,"PVT-1",37,0,8000,"35",301.4,"LCL",1,1
"14/02/2022 19:10:50",5769167,"PVT-1",38,1,3000,"35",56.3,"LCL",1,1
"14/02/2022 19:10:58",5769167,"PVT-1",39,0,3000,"35",369.1,"LCL",1,1
"14/02/2022 19:11:08",5769167,"PVT-1",40,0,9000,"35",347,"LCL",1,1
"14/02/2022 18:54:08",5769048,"PVT-1",1,0,4000,"36",359.3,"LCL",1,1
"14/02/2022 18:54:16",5769048,"PVT-1",2,0,7000,"36",302.5,"LCL",1,1
"14/02/2022 18:54:28",5769048,"PVT-1",3,0,10000,"36",419.5,"LCL",1,1
"14/02/2022 18:54:36",5769048,"PVT-1",4,0,7000,"36",322.9,"LCL",1,1
"14/02/2022 18:54:47",5769048,"PVT-1",5,0,9000,"36",331.4,"LCL",1,1
"14/02/2022 18:54:58",5769048,"PVT-1",6,0,9000,"36",323.3,"LCL",1,1
"14/02/2022 18:55:09",5769048,"PVT-1",7,0,10000,"36",299.7,"LCL",1,1
"14/02/2022 18:55:12",5769048,"PVT-1",8,0,1000,"36",410,"LCL",1,1
"14/02/2022 18:55:13",5769048,"PVT-1",9,1,6000,"36",300.7,"LCL",1,1
"14/02/2022 18:55:22",5769048,"PVT-1",10,0,6000,"36",329.6,"LCL",1,1
"14/02/2022 18:55:33",5769048,"PVT-1",11,0,9000,"36",272,"LCL",1,1
"14/02/2022 18:55:39",5769048,"PVT-1",12,0,5000,"36",304.4,"LCL",1,1
"14/02/2022 18:55:49",5769048,"PVT-1",13,0,8000,"36",323.2,"LCL",1,1
"14/02/2022 18:55:51",5769048,"PVT-1",14,0,1000,"36",374.9,"LCL",1,1
"14/02/2022 18:55:59",5769048,"PVT-1",15,0,6000,"36",359.7,"LCL",1,1
"14/02/2022 18:56:04",5769048,"PVT-1",16,0,4000,"36",334.5,"LCL",1,1
"14/02/2022 18:56:13",5769048,"PVT-1",17,0,7000,"36",372.1,"LCL",1,1
"14/02/2022 18:56:16",5769048,"PVT-1",18,0,1000,"36",598.5,"LCL",1,1
"14/02/2022 18:56:25",5769048,"PVT-1",19,0,7000,"36",361.9,"LCL",1,1
"14/02/2022 18:56:29",5769048,"PVT-1",20,0,3000,"36",408.5,"LCL",1,1
"14/02/2022 18:56:32",5769048,"PVT-1",21,0,1000,"36",300.9,"LCL",1,1
"14/02/2022 18:56:35",5769048,"PVT-1",22,0,2000,"36",262.1,"LCL",1,1
"14/02/2022 18:56:40",5769048,"PVT-1",23,0,3000,"36",53.8,"LCL",1,1
"14/02/2022 18:56:43",5769048,"PVT-1",24,0,2000,"36",331.4,"LCL",1,1
"14/02/2022 18:56:51",5769048,"PVT-1",25,0,6000,"36",372.7,"LCL",1,1
"14/02/2022 18:56:56",5769048,"PVT-1",26,0,4000,"36",322.6,"LCL",1,1
"14/02/2022 18:57:08",5769048,"PVT-1",27,0,10000,"36",338,"LCL",1,1
"14/02/2022 18:57:15",5769048,"PVT-1",28,0,5000,"36",312.3,"LCL",1,1
"14/02/2022 18:57:19",5769048,"PVT-1",29,0,3000,"36",382.3,"LCL",1,1
"14/02/2022 18:57:24",5769048,"PVT-1",30,0,3000,"36",249.4,"LCL",1,1
"14/02/2022 18:57:33",5769048,"PVT-1",31,0,8000,"36",338.8,"LCL",1,1
"14/02/2022 18:57:44",5769048,"PVT-1",32,0,9000,"36",313.3,"LCL",1,1
"14/02/2022 18:57:55",5769048,"PVT-1",33,0,10000,"36",332.4,"LCL",1,1
"14/02/2022 18:58:05",5769048,"PVT-1",34,0,8000,"36",371.7,"LCL",1,1
"14/02/2022 18:58:12",5769048,"PVT-1",35,0,5000,"36",410.8,"LCL",1,1
"14/02/2022 18:58:18",5769048,"PVT-1",36,0,5000,"36",328.9,"LCL",1,1
"14/02/2022 18:58:24",5769048,"PVT-1",37,0,4000,"36",300,"LCL",1,1
"14/02/2022 18:58:27",5769048,"PVT-1",38,0,2000,"36",342,"LCL",1,1
"14/02/2022 18:58:37",5769048,"PVT-1",39,0,8000,"36",343.3,"LCL",1,1
"14/02/2022 18:58:41",5769048,"PVT-1",40,0,2000,"36",411.5,"LCL",1,1
"14/02/2022 18:40:27",5768964,"PVT-1",1,0,7000,"37",345.7,"LCL",1,1
"14/02/2022 18:40:34",5768964,"PVT-1",2,0,6000,"37",316.7,"LCL",1,1
"14/02/2022 18:40:40",5768964,"PVT-1",3,0,4000,"37",295,"LCL",1,1
"14/02/2022 18:40:49",5768964,"PVT-1",4,0,8000,"37",302,"LCL",1,1
"14/02/2022 18:40:55",5768964,"PVT-1",5,0,4000,"37",566.1,"LCL",1,1
"14/02/2022 18:40:59",5768964,"PVT-1",6,0,2000,"37",347,"LCL",1,1
"14/02/2022 18:41:05",5768964,"PVT-1",7,1,9000,"37",5408.5,"LCL",1,1
"14/02/2022 18:41:12",5768964,"PVT-1",8,0,3000,"37",329.2,"LCL",1,1
"14/02/2022 18:41:18",5768964,"PVT-1",9,0,5000,"37",319.8,"LCL",1,1
"14/02/2022 18:41:21",5768964,"PVT-1",10,0,1000,"37",506.7,"LCL",1,1
"14/02/2022 18:41:32",5768964,"PVT-1",11,0,10000,"37",318.8,"LCL",1,1
"14/02/2022 18:41:41",5768964,"PVT-1",12,0,7000,"37",290.7,"LCL",1,1
"14/02/2022 18:41:49",5768964,"PVT-1",13,0,6000,"37",301.9,"LCL",1,1
"14/02/2022 18:41:58",5768964,"PVT-1",14,0,8000,"37",329.7,"LCL",1,1
"14/02/2022 18:42:03",5768964,"PVT-1",15,1,10000,"37",3381.3,"LCL",1,1
"14/02/2022 18:42:06",5768964,"PVT-1",16,0,1000,"37",535.8,"LCL",1,1
"14/02/2022 18:42:14",5768964,"PVT-1",17,0,7000,"37",318.8,"LCL",1,1
"14/02/2022 18:42:25",5768964,"PVT-1",18,0,9000,"37",346.8,"LCL",1,1
"14/02/2022 18:42:36",5768964,"PVT-1",19,0,10000,"37",330.2,"LCL",1,1
"14/02/2022 18:42:44",5768964,"PVT-1",20,0,6000,"37",357.2,"LCL",1,1
"14/02/2022 18:42:53",5768964,"PVT-1",21,0,7000,"37",365.8,"LCL",1,1
"14/02/2022 18:43:03",5768964,"PVT-1",22,0,9000,"37",315.6,"LCL",1,1
"14/02/2022 18:43:10",5768964,"PVT-1",23,0,5000,"37",391.3,"LCL",1,1
"14/02/2022 18:43:20",5768964,"PVT-1",24,0,9000,"37",413.8,"LCL",1,1
"14/02/2022 18:43:32",5768964,"PVT-1",25,0,10000,"37",358.6,"LCL",1,1
"14/02/2022 18:43:38",5768964,"PVT-1",26,0,4000,"37",774.6,"LCL",1,1
